,EDA_mean,EDA_std,EDA_min,EDA_max,EDA_phasic_mean,EDA_phasic_std,EDA_phasic_min,EDA_phasic_max,EDA_smna_mean,EDA_smna_std,EDA_smna_min,EDA_smna_max,EDA_tonic_mean,EDA_tonic_std,EDA_tonic_min,EDA_tonic_max,BVP_mean,BVP_std,BVP_min,BVP_max,TEMP_mean,TEMP_std,TEMP_min,TEMP_max,ACC_x_mean,ACC_x_std,ACC_x_min,ACC_x_max,ACC_y_mean,ACC_y_std,ACC_y_min,ACC_y_max,ACC_z_mean,ACC_z_std,ACC_z_min,ACC_z_max,Resp_mean,Resp_std,Resp_min,Resp_max,net_acc_mean,net_acc_std,net_acc_min,net_acc_max,BVP_peak_freq,TEMP_slope,0,1,2
0,0.4090631457288229,0.05182549178946784,0.33703966327376617,0.6268472448699224,0.1778303214174885,0.08500771767363717,0.021574011076427514,0.34560303981521945,0.13746002049449813,0.3047112465764831,1.701732177394888e-08,1.7325512976511135,-0.9231359708860294,0.08132971614071843,-1.0462027772561147,-0.8115822613161608,1.1905596382136805,64.55738621316166,-247.22,201.16,33.28945454545455,0.027755034707713136,33.23,33.34,1.8036307756378427e-05,5.209448482589805e-06,2.758685039905621e-06,4.4138960638489935e-05,0.03523865241818386,0.009119052240301736,-0.019911437305523076,0.04749705761342055,1.547602983062666e-05,4.469960327060913e-06,2.3670860215713828e-06,3.7873376345142124e-05,0.022492490200865453,0.006496533022681814,0.0034402659937651497,0.055044255900242395,0.03573140035627742,0.006938859787286019,5.9251837759271344e-05,0.04749706331085184,0.17637083097795364,0.0007017559678110184,False,True,False
0,0.3890193799981929,0.01814081032111243,0.37012125084722286,0.42783254905336116,0.04780219016652165,0.06659853645534644,0.0005824370298851812,0.18903466464538488,0.023546422204469376,0.05743371412245497,5.04479835683469e-08,0.27102995199462976,-0.8205925771311474,0.04384104332264896,-0.9122872431762294,-0.7877328470542584,-0.05911199095022646,70.18573525698083,-264.71,272.99,33.32441441441441,0.012408551646833835,33.29,33.34,1.7687415236625658e-05,5.5064888716412375e-06,6.620844095773492e-06,4.303548662252769e-05,0.034719854869802086,0.011635739855131945,-0.022656966694453485,0.04680365768980215,1.5176663069074982e-05,4.724835436975536e-06,5.681006451771319e-06,3.6926541936513574e-05,0.022057397736948096,0.006866962388283975,0.00825663838503636,0.05366814950273634,0.035894692994680705,0.007234391627822614,0.0006481852009320588,0.04680366094208678,0.10407239819004525,7.020007020008129e-05,False,True,False
0,0.3780199981068308,0.002697670194260794,0.3739044014698893,0.38977633629964153,0.0011093780411050766,0.00200349652615766,4.295527850224856e-06,0.007896681142761448,0.0008231024792233087,0.007518299166597541,5.815217384063168e-08,0.07896456536142271,-0.7878714727789418,0.0005057871612052872,-0.789217164590421,-0.7871531762555406,0.05176370830977963,29.952056230802995,-168.85,106.85,33.32891891891892,0.009848982536407428,33.31,33.34,1.651096375070293e-05,1.5644133839294263e-06,1.2689951183565858e-05,2.482816535915059e-05,0.03801686363313406,0.0012924118196137866,0.030302411050676516,0.03992513072409637,1.4167210439615029e-05,1.3423428189487044e-06,1.088859569922836e-05,2.1303774194142445e-05,0.020590283520649996,0.0019509288255347903,0.01582522357131969,0.03096239394388635,0.03801686997139148,0.0012924101328224981,0.030302426434601654,0.039925135549426456,0.09949123798756358,0.0001504036504036777,False,True,False
0,0.37934720254673676,0.004431430508017274,0.3743355162536864,0.4010919110737944,0.0028485186609721906,0.005265766595316551,3.574233682144177e-06,0.020597286457504825,0.0021921096640693727,0.014790930402844847,6.004787217461782e-08,0.11781030863243298,-0.7880963317187418,0.0012131305106615302,-0.7896355955605301,-0.7856290284540548,-0.22022058823529306,68.44333862516092,-324.07,474.78,33.33181818181818,0.007684348226953006,33.31,33.34,1.780475297135467e-05,3.5428475269609093e-06,6.069107087792367e-06,4.027680158262207e-05,0.036096881743816166,0.007541482465866784,-0.028172754074816637,0.04679764262432861,1.527734455596535e-05,3.039935598416417e-06,5.2075892474570424e-06,3.455945591494219e-05,0.0222037257927915,0.004418169414698953,0.00756858518628333,0.050227883508971186,0.03658912939528919,0.0045885173991014995,6.221442964723492e-05,0.046797643894915614,0.0904977375565611,-3.6066091111964724e-05,False,True,False
0,0.3794450824919465,0.0015808020947669658,0.3722069538541029,0.3837688669815085,0.0005449894498378864,0.0012079929933066006,2.1738838408517036e-07,0.004574697857741098,0.0004881656711987565,0.0036118930714189703,5.6216756728899586e-08,0.03380044419041035,-0.7856836840520016,0.0016739314281609232,-0.7900385591135124,-0.7839294896144073,0.5843042986425337,44.80599368043481,-228.88,192.97,33.31846846846847,0.012518945511662065,33.29,33.33,1.9116064570640126e-05,3.4980701646798056e-06,1.2138214175584734e-05,4.303548662252769e-05,0.035136441053724564,0.0070070435598142,-0.01165613560170306,0.04337675850820043,1.640251372594758e-05,3.0015144423927248e-06,1.0415178494914085e-05,3.6926541936513574e-05,0.023839019650913805,0.004362329028965229,0.01513717037256666,0.05366814950273634,0.03541042607731025,0.005454231469331068,0.0006445048308956487,0.043376770303095225,0.1085972850678733,-0.0001656721656721494,False,True,False
0,0.37582376191696293,0.0014213586907819385,0.3724297206396574,0.37860865807335997,0.00021335655529221975,0.00027107426572490974,7.905014804303213e-07,0.0011810927423462703,9.603654997901705e-05,0.0007816560294401908,1.011641110049144e-07,0.0077614804483337975,-0.7899516955147581,0.0010607601250753288,-0.7912322810256521,-0.7880081394719083,-0.44369135104578866,12.942128257012891,-32.81,27.76,33.324909090909095,0.009930534372702008,33.31,33.34,2.1518367448150706e-05,1.855692373549135e-08,2.1517743311263846e-05,2.2069480319244968e-05,0.03374689950443913,6.51946750114131e-05,0.03374067202261715,0.03442872522137018,1.8463806508080673e-05,1.5922743677600332e-08,1.8463270968256787e-05,1.8936688172571062e-05,0.026834853092090737,2.3141733381165002e-05,0.02683407475136817,0.027522127950121197,0.03374691141598806,6.519465239305711e-05,0.033740683935620984,0.0344287368962944,0.20802713397399658,-1.803304555595571e-05,False,True,False
0,0.38111860249606117,0.007474507504252372,0.3703271739164393,0.41435276965449874,0.0070990204560935286,0.00801385841310661,1.110660335992363e-06,0.02708253254709336,0.0060123826416986405,0.03179884743938411,2.7965565085885657e-08,0.25192066700368354,-0.7898675381659541,0.00275571161207522,-0.7944526031076626,-0.7862763190804157,-0.24074660633484182,26.196818763116486,-164.54,106.42,33.32783783783784,0.01021633321566307,33.31,33.34,2.1302416085298364e-05,6.074575797735724e-07,1.7655584255395975e-05,2.427642835116947e-05,0.033977805108714274,0.0005959729151729011,0.030989127568213204,0.03717960133516595,1.8278509729016486e-05,5.212281666734962e-07,1.514935053805685e-05,2.083035698982817e-05,0.02656554720208107,0.0007575405035804299,0.02201770236009696,0.03027434074513332,0.033977816725273426,0.0005959721813450034,0.030989141212674997,0.03717961106587607,0.2171945701357466,6.212706212705949e-05,False,True,False
0,0.3911616208556233,0.005258451039655996,0.38101772600563644,0.4004637090420213,0.0031448760396948984,0.0025846102722572066,0.00018576449553640772,0.009422407438238535,0.0019183184024585684,0.009313930859949459,5.6989075181146376e-08,0.08258480001244238,-0.7729619818295147,0.007001621607762526,-0.7858617578986781,-0.7624467736689793,0.2115884680610514,30.485699114061326,-129.29,218.67,33.360727272727274,0.020928409685000517,33.33,33.41,1.950218879510229e-05,8.237485029282992e-07,1.4896899215490354e-05,2.1517743311263846e-05,0.035591698102437494,0.0008060730394183642,0.03374000368200898,0.03854969266719848,1.673382710210079e-05,7.068163050025596e-07,1.2782264516485466e-05,1.8463270968256787e-05,0.024320542557505407,0.0010272698481506002,0.018577436366331808,0.02683407475136817,0.03559170741645759,0.0008060721262399288,0.033740014992146024,0.03854969804173459,0.10401356698699829,0.00048644140387257205,False,True,False
0,0.3918827673381149,0.004121145100312524,0.3840580741410927,0.3985773563830403,0.00013249415492376895,0.00018808219829115274,1.7407365810738403e-06,0.0009602450770101796,7.442704512937895e-05,0.0004304420987895501,6.516739941371443e-08,0.0034814987598916266,-0.7689020883335533,0.004737362331232389,-0.7780048688335098,-0.7625615456673893,-0.17820135746606336,22.087063821931828,-182.76,136.49,33.395765765765766,0.011874307600831129,33.37,33.43,1.9070502577899608e-05,3.606694509197978e-07,1.7103847247414853e-05,2.0966006303282724e-05,0.0359715454580205,0.00038740147734454936,0.03373799866018447,0.03717893299455778,1.636341931880398e-05,3.094719416426338e-07,1.4675933333742575e-05,1.7989853763942512e-05,0.0237822007781661,0.00044977909005218666,0.02132964916134393,0.02614602155261514,0.03597155424098922,0.0003874012152598178,0.033738008255573396,0.037178942206557125,0.1990950226244344,0.00011793611793611441,False,True,False
0,0.3858009564136973,0.002513419989913289,0.38219684019789363,0.3975534754585508,0.0015486080300827138,0.001996930385409253,4.609580053381813e-06,0.00645686328180265,0.0011683227762362106,0.00550304346266599,8.279785215770368e-08,0.040531088169654624,-0.7784016494243723,0.00013608599339322015,-0.7787109107246003,-0.7780878816059728,0.22921380090497784,48.322006680209945,-223.24,370.41,33.39145454545454,0.015255401427929595,33.37,33.43,1.8018831923546446e-05,3.6219732037851116e-06,6.620844095773492e-06,3.8621590558678696e-05,0.03596170978029306,0.007401818590640634,-0.024728478037402458,0.057822533978973197,1.546103471555788e-05,3.1078292799525853e-06,5.681006451771319e-06,3.313920430199936e-05,0.02247069666063346,0.004516844461423847,0.00825663838503636,0.0481637239127121,0.03639951335119173,0.004803293246614886,6.715208279384086e-05,0.0578225409304638,0.0995475113122172,0.00020341275387146716,False,True,False
0,0.38170775450923855,0.002007887564138769,0.3775198128239017,0.3864535681927551,5.3514465618895074e-05,9.498067171174522e-05,2.6552179684161137e-07,0.00036668710456232894,3.6389785256417684e-05,0.00037741669563625963,5.1807633554912594e-08,0.003976884678885192,-0.7823294340993965,0.002566428977632168,-0.7881485760840458,-0.7787402316358765,0.1404126625211984,20.934792345334667,-165.69,193.8,33.42351351351351,0.012109248805517836,33.39,33.45,1.6545244733678308e-05,1.1939395325971343e-06,1.6000373231452603e-05,2.7586850399056214e-05,0.037870751240431974,0.00114435339936329,0.025485370318797135,0.03923908254716785,1.4196625191365563e-05,1.0244582245999473e-06,1.372909892511402e-05,2.367086021571383e-05,0.020633034214642618,0.0014889229880139926,0.01995354276383787,0.0344026599376515,0.03787075759219295,0.0011443519425417446,0.025485387749804595,0.03923908860851982,0.2125494629734313,0.0001779571779571944,False,True,False
0,0.37595215983016095,0.006635426241587878,0.3628021827201192,0.41043182919763527,0.005348690078890151,0.006154275924623773,2.0995580545210112e-05,0.02496311904032092,0.005121179248464516,0.02041104160957481,3.7357442972396626e-08,0.11832106808232087,-0.7947319961367542,0.003864610750601078,-0.8006304368670752,-0.7883080962410683,0.6590497737556557,71.76383579266142,-344.41,287.78,33.436727272727275,0.018026946746677756,33.41,33.47,2.2566293281182723e-05,5.115427341108793e-06,6.069107087792367e-06,4.524243465445219e-05,0.030171693277754683,0.011613087630558917,-0.01922873083163542,0.04750106765706958,1.9362977872383466e-05,4.389285611929422e-06,5.2075892474570424e-06,3.882021075377068e-05,0.028141687165287955,0.0063792823285818544,0.00756858518628333,0.05642036229774846,0.031225462729604705,0.008372157207456606,5.826430712995015e-05,0.04750107569065947,0.12217194570135748,0.0002810450149899833,False,True,False
0,0.3742443731181609,0.0035665207627674483,0.36760659304226573,0.38979747452805225,0.0035522821100999057,0.005338902136752614,4.7326341672995086e-07,0.017616109312352586,0.001731866374025574,0.013338776272055168,7.562179141218373e-08,0.12567019021455145,-0.7954231914182571,0.003465171988939898,-0.8006308570806987,-0.7907977555056014,-0.8532956472583391,50.1668402907213,-202.55,223.44,33.53,0.03495451590021108,33.45,33.57,2.3459732893027916e-05,3.0959992475080834e-06,9.931266143660237e-06,4.303548662252769e-05,0.03120694586065338,0.005616995151818851,-0.012340178756807062,0.0440614700039126,2.0129592540504208e-05,2.6565180278146663e-06,8.521509677656977e-06,3.6926541936513574e-05,0.029255866518730526,0.0038609195228350326,0.01238495757755454,0.05366814950273634,0.03142355408775884,0.0042391012950230185,7.20897359404468e-05,0.04406147912645854,0.1582815149802148,0.0009775359775359464,False,True,False
0,0.37645412228870484,0.0015547941188143427,0.3728829262045129,0.3821222889212955,0.0001114755023238618,0.0005015055918191193,2.257781264013772e-07,0.00320926288124388,0.00032930892411422145,0.0032306157349607225,1.3114696023780237e-07,0.03382489789033589,-0.789110526328387,0.001006797879428294,-0.7907790546546806,-0.7873899429574798,1.8587669683257917,21.671375824213673,-68.67,227.87,33.560545454545455,0.012622708794647153,33.53,33.59,2.3369557454567007e-05,1.6189642091577846e-06,1.2138214175584734e-05,2.5931639375112838e-05,0.031954288217017575,0.0016580900158324685,0.030977097437266118,0.04819513592129615,2.0052217625723368e-05,1.3891500818277058e-06,1.0415178494914085e-05,2.2250608602771e-05,0.029143411675237218,0.0020189573776348765,0.01513717037256666,0.03233850034139241,0.03195430321428633,0.0016580883007640804,0.030977101566319363,0.048195148033922615,0.22624434389140274,5.2656493023478595e-05,False,True,False
0,0.3969959416703869,0.008959972414010538,0.3776344469860534,0.4121241667670635,0.003660587532643972,0.005414473892477571,8.296053734707672e-06,0.02039142916346678,0.0025748796641949546,0.021224396458622417,5.4612355072231056e-08,0.22140561112891363,-0.765686804317344,0.01093360170374247,-0.7871515763871678,-0.7532998363908932,-1.9735556811758057,31.319247285474685,-164.72,164.03,33.575045045045044,0.033733551517036844,33.53,33.65,5.9711175965559e-06,1.4735019618671271e-05,-1.2138214175584734e-05,4.744938268637668e-05,0.008817271686972761,0.0036060790386118983,-0.012371590765391112,0.03923507250351882,5.1235094951071086e-06,1.2643363944196443e-05,-1.0415178494914085e-05,4.071387957102778e-05,0.007446385692839636,0.018375561609349708,-0.01513717037256666,0.059172575092760575,0.008929107253493317,0.003319235000538629,2.172567384506616e-05,0.039235076383180675,0.08592425098925946,0.0009083889083889461,False,True,False
0,0.39605919527591466,0.008494325481575405,0.3772183009530492,0.4068475393112334,0.006698302682208336,0.005348264667992248,4.145589227306872e-06,0.018704482732946073,0.00554524340411691,0.013653724472902974,3.234581361089006e-08,0.06439873539295671,-0.7701808950331318,0.009518937095991865,-0.7803880119633945,-0.7534255734474697,0.3553167420814486,69.62648238050566,-310.99,231.55,33.678999999999995,0.024567824113083534,33.65,33.73,1.2826637161787426e-05,1.4970998953949887e-05,-8.276055119716864e-06,4.524243465445219e-05,0.01599720746361368,0.009978117844745622,0.0021142851418719383,0.06056539000547092,1.100587892065916e-05,1.2845845698306662e-05,-7.101258064714148e-06,3.882021075377068e-05,0.015995680189562805,0.01866984372950725,-0.010320797981295449,0.05642036229774846,0.015997226579242307,0.009978120993420297,0.002114988105167875,0.0605653927325728,0.07692307692307693,0.0004508712215134325,False,True,False
0,0.39476652374337323,0.0019953658688938152,0.39029656386744255,0.3985629965340867,0.0007789781397435328,0.0011460479185006968,2.0481792797505287e-05,0.005240934557489361,0.0002106819266174164,0.0011062600149408786,7.464632932217483e-08,0.006609455923064414,-0.7658108596101022,0.0030658875398476655,-0.7747422122871612,-0.7624950085506124,-0.48273190045248876,13.023759692499272,-36.21,24.33,33.62378378378378,0.02378135457775167,33.59,33.66,3.0148932319602048e-05,2.6438513976453823e-07,2.9793798430980708e-05,3.0345535438961837e-05,0.019091858150395245,0.0003170743447134068,0.01861352675917306,0.01930224829853426,2.586925119276146e-05,2.2685531678862742e-07,2.5564529032970932e-05,2.6037946237285214e-05,0.03759774860380669,0.00032970607098369763,0.037154872732663616,0.03784292593141665,0.01909189949677451,0.0003170736143688271,0.018613568159544833,0.019302289714032222,0.2081447963800905,-0.0006480343980343609,False,True,False
0,0.3984586143378124,0.0015238542398757218,0.3942926922829705,0.401292395013914,0.0005410471826618439,0.000989163260110813,1.8242879371411793e-07,0.003500377784153177,0.0004758049498733353,0.0029466794624865363,6.795568623790826e-08,0.02408215283930487,-0.7609936310762565,0.0011342977493845328,-0.7634797212830293,-0.7594439882377649,-0.24940079140757485,24.52037242337517,-162.68,185.23,33.57327272727273,0.015211601735392079,33.55,33.61,2.995402036437184e-05,2.830789733952931e-06,1.0483003151641362e-05,4.358722363050881e-05,0.019164940862508875,0.0035209861905364493,0.0014208852182535376,0.04543490303898597,2.5702007249365024e-05,2.4289553581937715e-06,8.994926881971256e-06,3.739995914082785e-05,0.03735468027173653,0.0035301854022273377,0.01307301077630757,0.054356202701489366,0.019164984645216095,0.0035209710563430217,0.0014217198769894863,0.04543491016410824,0.23063877897117013,-0.0003137749926741112,False,True,False
0,0.39801814757242726,0.004147747604848915,0.3897189093279677,0.40868816422528087,0.001812486220920095,0.00197625256613613,5.9607057900862755e-05,0.007534602763629512,0.001384069010750483,0.009070274384987701,6.198018895385918e-08,0.08172184842819026,-0.7626384503206094,0.0025810095530431026,-0.7653444524638371,-0.7573005567322265,0.9725622171945705,82.55033421392253,-236.6,317.07,33.59756756756757,0.02905218552931102,33.53,33.65,2.0372452123882215e-05,6.422503412586067e-06,0.0,4.138027559858432e-05,0.03313451394518831,0.006792638095203359,0.004855804487153317,0.06264959981997516,1.7480555391427942e-05,5.510820492921181e-06,0.0,3.550629032357074e-05,0.025405819525449833,0.008009294198338924,0.0,0.05160398990647725,0.03313452875440521,0.006792624148939413,0.004855993930881501,0.06264961258004072,0.0904977375565611,0.0008223938223938341,False,True,False
0,0.4044844178373363,0.002943172598891655,0.39542575713799966,0.4097400443386326,0.001553996427840193,0.0016758375375623888,4.7517186845423816e-05,0.005610082098371449,0.0011611919653161157,0.005022083827845691,4.872442128586729e-08,0.0399397601342665,-0.7538325558903469,0.001858069819558501,-0.7571916161294772,-0.7485280722575434,-0.53687959299039,36.82205005321955,-233.45,115.37,33.648909090909086,0.01043507270148102,33.63,33.66,2.024512819896349e-05,3.604947533572092e-06,8.276055119716864e-06,4.689764567839556e-05,0.012900614288776728,0.0173134905790849,-0.016488548167570383,0.036489543114588414,1.7371305267355417e-05,3.0932204263190067e-06,7.101258064714148e-06,4.024046236671351e-05,0.025247038018045287,0.004495612304288244,0.010320797981295449,0.058484521894007546,0.015283725777942046,0.015248449109188364,3.0613449508956865e-05,0.036489551486704304,0.12662521198417184,-0.0001457070080923002,False,True,False
0,0.40215478337775484,0.007849698994671112,0.37579463297839133,0.4114474928399601,0.01657077679820624,0.011870807907668946,4.237659524399085e-05,0.03921682173076174,0.013049615616236798,0.033532449724891826,2.9273300727883367e-08,0.19696826673316448,-0.7720065854836546,0.014730328634526823,-0.7891396432568101,-0.7480243934474848,0.08784502262443546,69.76358422177644,-282.75,348.22,33.61342342342343,0.01942329882549638,33.57,33.65,2.22124076663351e-05,6.173151444252517e-06,4.413896063848994e-06,4.358722363050881e-05,0.006716745268310522,0.01611593971048318,-0.030246938780198296,0.04474484481840843,1.905932679224071e-05,5.296864368841917e-06,3.7873376345142126e-06,3.739995914082785e-05,0.027700367975590032,0.007698335504349825,0.00550442559002424,0.054356202701489366,0.012680799982360838,0.011996057616185177,2.66633269916721e-05,0.04474485086628325,0.17647058823529413,0.00013302913302913947,False,True,False
0,0.4131400465503349,0.0051074678179750576,0.3898255869234039,0.42205153748550434,0.002911272341449791,0.004042936935357257,1.8868321497615037e-06,0.01452215801473312,0.0019205644593250125,0.012119252868335479,6.716000488615585e-08,0.11968294010438743,-0.7439760017600906,0.00849733713307263,-0.7681044505323114,-0.7365894916426255,-0.18102882984737173,35.61988241028893,-114.63,168.3,33.65819819819819,0.008964394031966184,33.63,33.68,2.3664841905034456e-05,4.223141081137489e-06,1.6000373231452603e-05,4.248374961454656e-05,0.02995703664084007,0.00616180998281543,0.006923305786453263,0.038558381095104705,2.030558605487641e-05,3.6236605758468194e-06,1.372909892511402e-05,3.64531247321993e-05,0.02951165126719352,0.005266541282584018,0.01995354276383787,0.05298009630398331,0.029957056506542405,0.006161794794514139,0.006923462132679411,0.038558392616225484,0.13114754098360654,1.948051948051685e-05,False,True,False
0,0.4211161254661154,0.004616950375914626,0.4092293890593328,0.43916800822766294,0.0014442530074037124,0.0029914976702412454,6.651073228319203e-07,0.012214784819658058,0.001592304833144792,0.012704880867830068,1.0336429613584186e-07,0.12803993475153083,-0.7321516808753684,0.004129091735761148,-0.7414470998420477,-0.7284066607697349,0.039869909502263094,43.18220600274149,-222.28,281.11,33.67072727272727,0.019380738139771574,33.63,33.71,2.3275312784651678e-05,2.350050820152057e-06,1.3793425199528107e-05,2.869032441501846e-05,0.03019512402175324,0.002441449881640969,0.027552871618097077,0.03854969266719848,1.9971351112316748e-05,2.016457973960887e-06,1.1835430107856916e-05,2.461769462434238e-05,0.029025882226128952,0.0029306716073922,0.01720132996882575,0.03577876633515756,0.030195140023254713,0.0024414465680016348,0.02755289191335183,0.03854969804173459,0.1900452488687783,0.0004887856997948993,False,True,False
0,0.4175973930826375,0.004391053414332007,0.407061231027981,0.42883567317251836,0.002885393832456412,0.0029332232089553643,1.9675480780080838e-05,0.010870950666354422,0.0017434775006536479,0.012762066237954303,6.244114482412133e-08,0.11222533433982779,-0.7381183623749621,0.005340121143689195,-0.7464127613337977,-0.7301384598866646,0.2422511312217188,80.32878592111996,-284.51,260.64,33.71603603603603,0.03462209697129356,33.66,33.77,2.056094146371287e-05,6.304032456614169e-06,-5.517370079811242e-07,4.855285670233894e-05,0.03328574036987355,0.007453531636938896,-0.006837089847999164,0.050244592024175465,1.764228841824119e-05,5.409166647053778e-06,-4.734172043142766e-07,4.166071397965634e-05,0.025640878423666365,0.007861552939303091,-0.00068805319875303,0.06054868149026664,0.03334286024078538,0.007193456090931067,6.122689901791373e-05,0.05024459531145436,0.06787330316742082,0.0009512109512109643,False,True,False
0,0.42880932776812947,0.011245874171759193,0.41069552952313726,0.48370637426264484,0.010137655721291623,0.008528213540788449,1.1043098740852096e-05,0.03361858926073603,0.00819856251253882,0.030120322942107158,2.6996465174455864e-08,0.25264226851669463,-0.7308246027947514,0.005756274268154853,-0.7398733728612945,-0.7223843826315846,-0.013369135104578652,51.39158379452298,-227.12,171.74,33.80109090909091,0.03668225715508225,33.75,33.87,7.056491642799311e-06,1.3969653378450342e-05,-1.8759058271358226e-05,4.027680158262207e-05,0.01905999367058133,0.014718837856965775,-0.017213360099772833,0.04406213834452077,6.054813248843e-06,1.198664246189501e-05,-1.6096184946685404e-05,3.455945591494219e-05,0.008799920209391129,0.017421098373815568,-0.02339380875760302,0.050227883508971186,0.01931683395216389,0.014379733491009263,0.0006543923788412604,0.044062147940741696,0.04974561899378179,0.0010354574758244237,False,True,False
0,0.42165095316721257,0.001707605312047187,0.4176392697937369,0.4253635255705064,0.0019319712251655709,0.00197671032348796,4.03370639957772e-05,0.006976386737364871,0.0012971067468861323,0.005850468877397129,6.946291129100723e-08,0.03845863812916851,-0.731999337645067,0.0022721543021476005,-0.7382887025807341,-0.7285623701586624,-0.41833710407239827,16.59866305549386,-146.65,44.68,33.90009009009009,0.016760098475273547,33.84,33.93,2.088486850799138e-05,2.26361875559237e-06,1.4896899215490354e-05,4.303548662252769e-05,0.03396328918400338,0.005472742641069064,-0.013722300219786663,0.039243092590816875,1.792023358683747e-05,1.9422950561666223e-06,1.2782264516485466e-05,3.6926541936513574e-05,0.02604483725868087,0.002822885003204222,0.018577436366331808,0.05366814950273634,0.03417997851370028,0.0038947448743367552,0.0006432854897290123,0.03924310131827152,0.04072398190045249,0.00011890136890136001,False,True,False
0,0.42278940725854125,0.00861846368211807,0.39854817371561363,0.46715489529661647,0.016120838539632736,0.017183360253079028,0.00017903598482772162,0.06797458373577134,0.012393635786566293,0.04931701024490896,3.3810772515074916e-08,0.4340794471486038,-0.7445994752812589,0.014568677076359006,-0.7659252207793572,-0.7262060651232238,-0.10133973996608284,76.06529698480996,-315.91,325.08,33.92672727272727,0.013140670874270798,33.91,33.95,1.6868813516331368e-05,7.20191322776059e-06,2.206948031924497e-06,4.08285385906032e-05,0.034806382183031316,0.01068823328758133,-0.016469834630541587,0.04474150311536758,1.4474262954051632e-05,6.179592045993534e-06,1.8936688172571063e-06,3.5032873119256466e-05,0.021036546273287552,0.008981270717428404,0.00275221279501212,0.05091593670772422,0.03530300641738415,0.008909630023071775,6.418949090587729e-05,0.04474150742125638,0.07235726399095534,0.00014570700809235195,False,True,False
0,0.4242006265863632,0.0028301988189624074,0.41408743525062014,0.4286747226663038,0.0010209187103454409,0.0012760607025320727,1.9562012805224063e-06,0.004854467107371651,0.001402252542227405,0.009341807528600731,5.130443143583352e-08,0.08823901739289948,-0.7276212510163598,0.0024551766726642675,-0.7344220628102881,-0.7249251016329852,0.20585972850678755,63.562614133645155,-251.39,284.7,33.953603603603604,0.02459832931476943,33.91,33.99,2.2932037496880617e-05,4.8098404257480475e-06,9.931266143660237e-06,4.358722363050881e-05,0.02935954860365765,0.012520783840963513,-0.03229839990490213,0.04267533849728397,1.9676804209180033e-05,4.1270771665063514e-06,8.521509677656977e-06,3.739995914082785e-05,0.02859779482871474,0.005998194869213486,0.01238495757755454,0.054356202701489366,0.031076478857631623,0.007272484083419521,6.715208279384086e-05,0.0426753420641875,0.15837104072398192,0.0005533520533520766,False,True,False
0,0.4230550376845245,0.005127308507834411,0.409219795076299,0.4392940198155318,0.006422630462093482,0.00627290672982666,4.053499072238701e-05,0.02336050233533437,0.005214142527510884,0.018324179804167985,4.812956261486534e-08,0.10296466595848588,-0.7345856843298219,0.003374837683789549,-0.7399520730036989,-0.7293650004001937,-1.2751753393665148,77.941139072388,-319.3,236.58,33.98563636363637,0.013239312652082546,33.95,34.0,2.3347088526640176e-05,5.182839028955582e-06,9.379529135679113e-06,3.9725064574640946e-05,0.0293654997562546,0.011001834365221634,-0.014407680056107009,0.045430892995336945,2.003293819206351e-05,4.44712812083654e-06,8.048092473342702e-06,3.408603871062791e-05,0.02911539140922465,0.0064633492423204235,0.01169690437880151,0.04953983031021816,0.030137824557159937,0.008662183052376954,5.727677650062896e-05,0.04543089788738339,0.07239819004524888,5.445979757905049e-05,False,True,False
0,0.4280007432518042,0.002131498892373485,0.42089859711148264,0.43264384889651947,0.0014751654098485644,0.002917603298822926,7.810083768111962e-06,0.01137883531257784,4.5644728068161775e-05,0.00040981567597687924,8.266965083477372e-08,0.00427519483864729,-0.7232461261915595,0.004458639239072053,-0.7360772284900212,-0.7199925057568983,0.8347484454494065,26.162660232639997,-163.91,156.13,34.005495495495495,0.016881336587471697,33.99,34.05,2.3932528926511544e-05,7.907108941500115e-07,1.7103847247414853e-05,2.7035113391075092e-05,0.03132140081819813,0.0007359752622717258,0.030303747731892858,0.035801489915835386,2.0535274546867576e-05,6.784684288246017e-07,1.4675933333742575e-05,2.3197443011399553e-05,0.02984547500699653,0.0009860697255011693,0.02132964916134393,0.03371460673889847,0.03132141673796065,0.0007359740985358564,0.030303764615092748,0.03580149844885127,0.19898247597512717,-0.00020235170235168365,False,True,False
0,0.42256269904178667,0.01478504813159209,0.388595215425049,0.4406779209822895,0.008949503471992673,0.010082439121286644,1.2384673716507932e-06,0.03785929336105738,0.007716119689389425,0.02517916392501124,2.9052795391670827e-08,0.20384915213549765,-0.737697372416276,0.02045579019714275,-0.7797310224971913,-0.7185347465636321,0.42837104072398197,57.97490929837037,-321.73,259.9,33.98863636363637,0.014556266832081123,33.95,34.03,1.6701278955392427e-05,1.098709267289628e-05,-1.9310795279339348e-05,4.4690697646471064e-05,0.022978947205828257,0.013991128734279169,-0.012391640983636251,0.04955587048481427,1.4330510147336795e-05,9.427460223807172e-06,-1.656960215099968e-05,3.8346793549456406e-05,0.02082761939528544,0.013701644350891344,-0.02408186195635605,0.05573230909899543,0.023067544873529678,0.013844426521929645,1.975061258642378e-06,0.049555873556474915,0.0904977375565611,0.0002948853774541753,False,True,False
0,0.38712037494141666,0.0022093097736183517,0.38315480041379696,0.3916155615433487,0.0028249240750492606,0.004134314351913739,1.0971382439221403e-05,0.01238115337170984,0.0013483363397751484,0.008452182951513289,8.257029245018963e-08,0.08210994412158398,-0.7779552151391408,0.002439637159101458,-0.7826769407745867,-0.7745881809328551,0.2797230073487846,19.008254707853013,-51.04,31.63,33.98702702702703,0.010668099821822541,33.97,34.0,4.831595267631314e-07,2.450130195779944e-07,0.0,1.1034740159622485e-06,0.0019240243815664736,0.0002776488723383033,0.00137610639750606,0.002065496277475433,4.1457438795882977e-07,2.102330948827372e-07,0.0,9.468344086285532e-07,0.0006025324621848568,0.00030554773273890176,0.0,0.00137610639750606,0.0019240245192971056,0.0002776488352575437,0.00137610639750606,0.002065496789253174,0.17637083097795364,-0.00018883818883819477,False,True,False
0,0.3969209522459919,0.016238003036388875,0.38220599870017086,0.4422807771933834,0.009287451177774436,0.012077670061237094,2.390758554375628e-06,0.04823360394510054,0.007410132386188677,0.03736097458780013,5.2420799933478035e-08,0.3446565172569116,-0.7715646540165324,0.01244673537083424,-0.7839245277274288,-0.7455697878362999,-0.09395361990950273,29.426296955242783,-179.76,206.1,33.974545454545456,0.013246870056932727,33.95,34.0,-1.310063325511742e-06,2.230029515208057e-06,-7.72431811173574e-06,6.620844095773492e-06,0.002061794324612818,0.001752117974314993,-0.002061486233826405,0.01857409466329095,-1.1240980903344643e-06,1.9134738532243573e-06,-6.627840860399872e-06,5.681006451771319e-06,-0.0016337371766771607,0.0027809969587993732,-0.00963274478254242,0.00825663838503636,0.0021085984141175304,0.001695439920404881,3.950122517284756e-06,0.018574095018986325,0.1900452488687783,0.00020269143204925113,False,True,False
0,0.41256190265318776,0.001386545808573285,0.4082261162996115,0.4158466350815652,0.00034530459892428,0.0008345672101792916,3.592218541602522e-07,0.004406258468500786,1.5251201829122864e-06,1.1848051555764441e-05,9.812910532498026e-08,0.00012489381291855403,-0.7421705919787752,0.0008704617232771739,-0.7452337996254922,-0.740908002790302,0.06734313171283197,17.167141969826293,-49.49,31.55,34.0190990990991,0.021043226055368208,33.99,34.05,-4.103700031081326e-06,2.738793623036727e-07,-4.413896063848994e-06,-3.86215905586787e-06,0.0016178694342775355,0.000331749756194831,0.0006827064738876595,0.002059481212001891,-3.521174342043403e-06,2.3500182178393507e-07,-3.7873376345142126e-06,-3.313920430199936e-06,-0.0051175902509063035,0.0003415460057591952,-0.00550442559002424,-0.00481637239127121,0.0016178788427991823,0.00033174813491846283,0.0006827312471924379,0.0020594874995808954,0.18541548897682306,0.00042207792207791064,False,True,False
0,0.42171364786667365,0.019266467687155696,0.3821291484728161,0.5119541926550062,0.02188513359977847,0.027453632122515222,2.3143937700893747e-07,0.10583493273337208,0.017042824990591173,0.10093733656573264,3.393770336979074e-08,1.0385775734704963,-0.751922751438514,0.0065127684982816065,-0.7609774886742628,-0.7422800424530762,-0.1883371040723987,44.92838748860893,-312.82,179.3,34.033727272727276,0.016359442516974142,34.0,34.05,6.226389583280199e-06,7.803936046727974e-06,-4.965633071830118e-06,2.813858740703734e-05,0.0019417189647153808,0.009005233289934456,-0.03713816421745934,0.05092195177319777,5.342545283076045e-06,6.696156923401012e-06,-4.260754838828489e-06,2.4144277420028106e-05,0.007764727048371298,0.009732033708347795,-0.00619247878877727,0.03509071313640453,0.0041510151895707585,0.008223046937571716,5.925183775927135e-06,0.05092195219356209,0.19457013574660637,0.0002029168451186617,False,True,False
0,0.40065387587459866,0.00381143406304841,0.39369546877645806,0.4097108948290545,0.00047835201260759897,0.0006651911548984559,8.007025060832593e-07,0.0034736602994433078,0.00016175664778075852,0.0011735785106051825,8.782786334662895e-08,0.010364111328115617,-0.7577169410033425,0.0046012325860158194,-0.7638918426857662,-0.7490360384777831,0.12544117647058828,9.14815778523436,-24.87,18.7,34.03,0.013816985594154363,34.0,34.05,1.0996043672637383e-05,1.6361643377471093e-07,1.0483003151641362e-05,1.1586477167603609e-05,0.0007651970755997614,0.00019968789265284334,0.0007007516703082849,0.0013894732096694862,9.435140617204665e-06,1.4039086292385466e-07,8.994926881971256e-06,9.941761290599808e-06,0.013712806850261177,0.00020404070961124442,0.01307301077630757,0.01444911717381363,0.000765339960113948,0.0001996660608388837,0.0007008877980850719,0.0013895492849911265,0.2081447963800905,-0.0001452263952263887,False,True,False
0,0.39147852281410656,0.0027471399799751605,0.38347248140802864,0.39640526149519095,5.272176194337557e-05,8.985727426020952e-05,1.7254100356247646e-07,0.00034965009364778296,4.1001019467054754e-05,0.00035323647928999316,8.068786563815997e-08,0.0036272126261605994,-0.7693789832442525,0.0031788662351439688,-0.7738821806309459,-0.7640184080944763,-0.18081967213114758,8.089849783529067,-21.51,14.48,34.01054545454545,0.014890201422927742,33.99,34.03,1.0952447182160894e-05,1.984045542763806e-07,1.0483003151641362e-05,1.1586477167603609e-05,0.0005753716050879032,0.000294851331488784,-0.0006753547271977751,0.0013894732096694862,9.397732706658994e-06,1.702407633528868e-07,8.994926881971256e-06,9.941761290599808e-06,0.013658439091178792,0.0002474238382459629,0.01307301077630757,0.01444911717381363,0.000596315530267972,0.0002501567459403743,1.8763081957102597e-05,0.0013895492849911265,0.21707179197286602,-1.406577553366623e-05,False,True,False
0,0.3941858739707694,0.011613229641049013,0.3833599642898675,0.4183845436913194,0.004671641953806094,0.00480737139990897,9.737894485752414e-07,0.017348375844747545,0.004075051445719243,0.014919142399747988,6.193506906990165e-08,0.0972243009870811,-0.7704655912651236,0.010741479366702729,-0.7804436858325017,-0.7438538800343919,-0.025045248868777622,45.72849522940685,-200.22,215.29,34.00657657657658,0.01510541717972831,33.99,34.03,1.3771580408488131e-05,6.240413445997872e-06,-5.517370079811242e-07,4.524243465445219e-05,0.012761233045137346,0.017154733607212418,-0.026781275843322634,0.053678174611858906,1.1816686214020943e-05,5.354578439789207e-06,-4.734172043142766e-07,3.882021075377068e-05,0.017174088043535755,0.007782215749441172,-0.00068805319875303,0.05642036229774846,0.01304697707788044,0.016938193194197128,7.900245034569513e-06,0.05367817571958057,0.0995475113122172,9.599859599860134e-05,False,True,False
0,0.4215090571471624,0.0028271014154113735,0.415398456231544,0.429168449799162,0.0013780536353428462,0.0016755457048984496,1.9218900295237593e-05,0.0073485691332416045,0.0005761342404501227,0.004759414211292241,6.192645257848371e-08,0.04785744126962109,-0.7315812856436951,0.003460819098114845,-0.7432313111863658,-0.7285349213050959,0.07388920293951465,46.003892684264926,-336.5,182.95,34.016999999999996,0.01656513415957671,33.99,34.05,2.3297781712578516e-05,5.676921126413784e-06,1.3241688191546983e-05,5.1311541742244554e-05,0.02862445966109518,0.012552482967363257,-0.012337505394374377,0.03856172279814556,1.99906305459766e-05,4.871074606022102e-06,1.1362012903542639e-05,4.402780000122772e-05,0.02905390249214152,0.0070795028856053994,0.01651327677007272,0.06398894748403179,0.029128248854184063,0.011333035218900276,5.9251837759271344e-05,0.03856173729938173,0.10853589598643301,-2.6283163897841058e-05,False,True,False
0,0.42636250422796834,0.004486107999698729,0.406452389389015,0.43604850316691757,0.004267245970518698,0.00397118091927243,6.652745035559635e-07,0.013124479206033091,0.0034481857232515002,0.011914883573326344,3.602932142909854e-08,0.07410668808614419,-0.728145727760253,0.003090228601742826,-0.7331149326347703,-0.7207795829754484,0.05457013574660737,70.31764765750127,-305.55,250.32,34.04432432432432,0.022222904712424066,34.0,34.07,1.9406912359915248e-05,7.3942012693034645e-06,-6.069107087792367e-06,4.579417166243331e-05,0.032461636305544966,0.010468221832783625,-0.017855966137170214,0.057819860616540514,1.6652075283877957e-05,6.344584543747843e-06,-5.2075892474570424e-06,3.929362795808496e-05,0.02420172642763203,0.00922106685245594,-0.00756858518628333,0.05710841549650149,0.03315720247117951,0.007993152311622344,5.33266539833442e-05,0.05781986621546873,0.05882352941176471,0.00047191997191995956,False,True,False
0,0.42989789633705316,0.0029727592650426807,0.42408279219403283,0.43741398539431053,0.001281085176030656,0.001087402462938538,2.9109210533161416e-05,0.003877966344934138,0.0008581907334424059,0.0048268417599082935,5.197369488518094e-08,0.029671950846627146,-0.7205182600976133,0.003071489472339257,-0.7247170072070643,-0.71348970117513,-0.14810627473148671,38.60538634050968,-207.43,262.32,34.089459459459455,0.013607340120673817,34.07,34.11,2.590109122438846e-05,1.118365747493505e-05,0.0,4.08285385906032e-05,0.01730967363615189,0.017891012273337954,-0.004080867009338017,0.05848585857522389,2.222439680275812e-05,9.596122390204697e-06,0.0,3.5032873119256466e-05,0.032300404740557495,0.013946773894221994,0.0,0.05091593670772422,0.017346926023335617,0.017854892940305754,5.826430712995015e-05,0.05848585859329792,0.08592425098925946,-2.5623025623033367e-05,False,True,False
0,0.43958920593510553,0.0036895118126262375,0.43289559486318446,0.44709993308197654,0.00019060117951286785,0.00015912376536401799,8.514338294939093e-06,0.0006885128618848779,0.00010671812507915331,0.0006465328297906426,6.210810404080197e-08,0.005083668364214932,-0.7067375591847224,0.004446141532673739,-0.7132662539327665,-0.6982199048541431,0.15334841628959245,35.90213984710704,-201.89,179.86,34.08327272727273,0.014406235328737999,34.05,34.11,1.9153512783851518e-05,6.141474556678652e-06,6.620844095773492e-06,4.193201260656545e-05,0.033888806237927484,0.0070750400484246925,3.542205223307937e-05,0.04474484481840843,1.643464611538068e-05,5.269684057679773e-06,5.681006451771319e-06,3.5979707527885024e-05,0.023885720094268082,0.007658832292662993,0.00825663838503636,0.05229204310523028,0.0338888416052608,0.007074920142354179,5.2339123354023015e-05,0.04474485086628325,0.09502262443438915,9.63866284967107e-05,False,True,False
0,2.3189606391185134,0.051691477828760934,2.250451964303262,2.421692583500255,0.02933629465234141,0.01841468507318018,0.0026510838079318332,0.08133221636954324,0.018666259486674424,0.06205136318073805,5.9354586301463286e-08,0.41655801695551736,1.714611212042314,0.05413250553487956,1.6313600883955124,1.7935288564280643,0.7224929338609377,84.45646799808544,-267.23,405.16,34.08490909090909,0.014946108360683698,34.05,34.13,3.187217426421277e-05,3.1582096621504832e-06,7.72431811173574e-06,7.007060001360278e-05,-0.00934973778491196,0.004622871067099676,-0.03367784800544905,0.0117624017584023,2.7347876646507747e-05,2.7098975911812845e-06,6.627840860399872e-06,6.012398494791312e-05,0.03974674733882604,0.0039385000986732945,0.00963274478254242,0.0873827562416348,0.00940788362583248,0.0045034217095455496,0.0006518986485431575,0.033677871742500205,0.10401356698699829,-0.0002816761715844362,False,False,True
0,2.1954000692819493,0.0464503341922003,2.1327544251102872,2.282857543052193,0.03720276718934434,0.021302498934890383,0.004695993304330461,0.08073197856733533,0.028586973518454226,0.08177886048145618,5.086135446141782e-08,0.5450533537145976,1.5458092025227912,0.050321493312169875,1.4721123207738718,1.6301433918060986,-0.12088800904977444,50.96786426376339,-169.64,283.91,34.04459459459459,0.02181674851966966,34.0,34.09,3.188840182327104e-05,2.1751129217296404e-06,1.6552110239433728e-05,6.124280788590479e-05,-0.008891275442240752,0.0035488190714676954,-0.04671343170769903,0.002798996637584111,2.7361800681928753e-05,1.8663527433859087e-06,1.4202516129428297e-05,5.2549309678884696e-05,0.039766984197612903,0.002712512269063395,0.020641595962590898,0.07637390506158633,0.00889780528374566,0.0035326478914741995,4.6413939578095886e-05,0.04671350141042016,0.09502262443438915,-0.0005372060372060305,False,False,True
0,2.1201587458567257,0.0573807893854791,2.010876483647919,2.2227664354178476,0.052942781928845134,0.043577494119996674,0.0028550803927104252,0.14857285127178657,0.04024510557645375,0.11324652452653071,5.683469339601288e-08,0.7097199417833426,1.4319715933748745,0.04171842538616322,1.3201070217118471,1.471497208174405,0.4409728506787331,52.60409251212998,-279.7,233.38,33.998000000000005,0.019479464604665563,33.97,34.03,3.1919608667613866e-05,3.666344712611992e-06,9.379529135679113e-06,7.007060001360278e-05,-0.008314487164744819,0.005566776169340728,-0.05155252767964806,0.015159893953244484,2.7388577673123e-05,3.145902193960823e-06,8.048092473342702e-06,6.012398494791312e-05,0.039805901233741475,0.00457217872057305,0.01169690437880151,0.0873827562416348,0.008554813837015703,0.005189610482072467,5.036406209538064e-05,0.05155255807290423,0.2579185520361991,-0.00041295674323197577,False,False,True
0,2.1423401620642863,0.21124386808111523,1.969549331569664,2.8138681011290885,0.16933428880912718,0.23901124819710418,0.009280252461205953,0.9515809274688818,0.1577201069739921,0.41893298637435616,3.806178161536167e-08,2.2695129987547995,1.344461225641288,0.052164989992915176,1.2793829980189744,1.48111251115374,-0.09202374222724778,46.68162478921417,-191.15,212.15,33.946396396396395,0.021438825985190972,33.91,33.97,3.0958368748391716e-05,3.171179444963203e-06,1.2138214175584734e-05,6.951886300562166e-05,-0.012104111126559887,0.0033286447703789056,-0.03707066181603403,0.003479698089647257,2.6563787041625248e-05,2.721026296036934e-06,1.0415178494914085e-05,5.965056774359885e-05,0.0386071703318395,0.003954674291127917,0.01513717037256666,0.08669470304288178,0.012118590822065702,0.0032757327875265487,5.628924587130778e-05,0.037070774992456104,0.12662521198417184,-0.0005568620568620742,False,False,True
0,2.45630627143334,0.2997919232841882,2.1539121027008075,3.309996763388406,0.3259114285853624,0.3119109406048918,0.023142682145739633,1.118354658471198,0.316748273219342,0.6659004225027316,2.864463866103506e-08,3.3664214963755974,1.5973320177974395,0.09962824163649163,1.4873202533666292,1.9179792342664124,-0.110616515837105,68.72976674978953,-363.09,283.11,33.887297297297295,0.017265095947706616,33.84,33.91,2.8682210635489323e-05,5.863804707886706e-06,7.72431811173574e-06,6.620844095773491e-05,0.004889254969763753,0.018192294787483798,-0.015778439728747696,0.05650056317072902,2.461073260663188e-05,5.031429814016736e-06,6.627840860399872e-06,5.6810064517713187e-05,0.03576864790576414,0.007312559295030208,0.00963274478254242,0.08256638385036359,0.014844563881372994,0.011588025257423811,5.628924587130778e-05,0.05650063052347845,0.07239819004524888,-0.00033924183924182,False,False,True
0,3.0345659237087697,0.16084401702860485,2.844962560344147,3.464358707694039,0.35053259016195554,0.3294964771985013,0.04951380408073183,1.189579180267401,0.19143487912213572,0.4260646558645514,6.699467314241758e-08,2.861745933405082,2.326666477005905,0.12657551119324362,1.9336747540850876,2.434031126168774,0.17898247597512765,85.18328240927534,-279.49,289.16,33.83181818181818,0.017356584990585445,33.81,33.87,3.249069391908754e-05,6.06282452287452e-06,7.172581103754615e-06,7.007060001360278e-05,-0.005262699754373378,0.008018602769356077,-0.04949772485190336,0.028232904729552054,2.787859661197771e-05,5.202198501003015e-06,6.154423656085595e-06,6.012398494791312e-05,0.04051808299489421,0.007560750404810331,0.00894469158378939,0.0873827562416348,0.006179778453302395,0.0073344633076670275,3.4563572026241615e-05,0.04949774604242468,0.09496890898812888,-0.0003927597322092758,False,False,True
0,3.089270360354777,0.08751412355263095,2.919114322921889,3.291848292926501,0.17304446577633087,0.12075091077391069,0.021858384781596452,0.44379246823882523,0.11704277016234112,0.2975627531307214,4.697978672751901e-08,1.662524433016256,2.5754310027776177,0.06987948254536028,2.410270383976242,2.640985144464691,-0.4891176470588232,58.817195721322776,-239.77,292.37,33.79774774774775,0.016219218941214825,33.77,33.83,3.2462607759179e-05,3.821217549276394e-06,9.379529135679113e-06,7.007060001360278e-05,-0.002838202425427314,0.004231532210678791,-0.03366648621511014,0.01658545755575522,2.7854497319902888e-05,3.2787906250381e-06,8.048092473342702e-06,6.012398494791312e-05,0.040483057662378495,0.004765315575859986,0.01169690437880151,0.0873827562416348,0.0032894194331007797,0.0038909771942919375,5.036406209538064e-05,0.03366652690746391,0.12217194570135748,-0.0002802737802737643,False,False,True
0,3.087169634677045,0.18339566134920968,2.902339026270765,3.509852908695559,0.1993159844835441,0.19270679636648658,0.006338073083344333,0.6661299107416598,0.15827348597664953,0.3687289829097057,4.359213368054782e-08,1.98146204725896,2.5465589554792376,0.07673154157769904,2.4505908943343533,2.6736996169344533,0.15413227812323288,36.70639609839498,-189.08,165.4,33.75090909090909,0.019420288953032164,33.71,33.77,3.246582647189268e-05,3.155595805075997e-07,3.0345535438961837e-05,3.475943150281083e-05,-0.0026172579374327395,0.0009133494892213938,-0.00959197600544397,0.0014142018121718245,2.78572591320568e-05,2.707654774602414e-07,2.6037946237285214e-05,2.9825283871799426e-05,0.04048707161385625,0.00039352404429040286,0.03784292593141665,0.04334735152144089,0.0026271770704783468,0.0008854154359960235,5.628924587130778e-05,0.009592078522266725,0.2035048049745619,-0.00047057232378338654,False,False,True
0,3.0530111044571386,0.07643329301177734,2.974343834856303,3.3088362844044186,0.11073277066763178,0.10371717194966894,0.01650846092489034,0.4622338173949998,0.08453986899104303,0.2687074750208665,7.182191241739133e-08,1.8715730226708742,2.590561802796997,0.0266056761366528,2.571797552878751,2.6661943923384785,-0.075690045248869,50.0197806789743,-215.27,209.2,33.6936036036036,0.020617415092048133,33.66,33.73,3.236149758350825e-05,3.175305916426293e-06,1.434516220750923e-05,7.007060001360278e-05,-0.004391892986388368,0.00427460794070132,-0.034353202732646825,0.006917290720979721,2.776773986843353e-05,2.7245670093758618e-06,1.230884731217119e-05,6.012398494791312e-05,0.040356966465321956,0.003959820278887794,0.01788938316757878,0.0873827562416348,0.004453819849699187,0.004210190412011122,4.246381706081113e-05,0.034353244857831054,0.09502262443438915,-0.0005513338013338089,False,False,True
0,2.9416384789325223,0.039313171124567434,2.8835301457267617,3.0566709388188524,0.044637396817425665,0.0464147446044504,0.0021024128248745303,0.2985630847479117,0.051784646759793496,0.15298658467037157,5.74057238966752e-08,1.0217397760771294,2.511420678280652,0.04520938156413024,2.4131287773633274,2.5715342987630274,0.1375226244343892,31.33776699371366,-234.3,230.29,33.62509090909091,0.02604672775395848,33.57,33.66,3.205254982451429e-05,5.672059274285114e-07,2.7035113391075092e-05,4.358722363050881e-05,-0.004224923971534457,0.0024032979978549198,-0.0061537150335033335,0.0076066806009490945,2.750264765561049e-05,4.86690290028323e-07,2.3197443011399553e-05,3.739995914082785e-05,0.039971687807649155,0.0007073439828640568,0.03371460673889847,0.054356202701489366,0.0046258484845665485,0.001491682705212872,5.628924587130778e-05,0.007606793475797636,0.23076923076923078,-0.0007429614769063861,False,False,True
0,2.9438877477621785,0.054220921201632695,2.860768180179374,3.068986407624032,0.13130757337387042,0.0752774233812314,0.016094608645108605,0.30092753252632554,0.08814617437961983,0.21675706267623174,3.081695965079234e-08,1.318949661437597,2.4275411588066116,0.011184404426317853,2.4056276622914545,2.4395316118842763,-0.05491237987563551,62.55235763960801,-264.1,705.55,33.55936936936937,0.019034861762723385,33.53,33.61,3.199388095714979e-05,7.857474139731343e-07,2.3172954335207218e-05,3.917332756665982e-05,-0.004920053304683352,0.0017140069166293886,-0.019911437305523076,0.0027883031878533707,2.7452306912165306e-05,6.742095212744186e-07,1.9883522581199616e-05,3.3612621506313634e-05,0.039898523779727454,0.0009798799315173586,0.02889823434762726,0.04885177711146513,0.004939427067548504,0.0016578203981467993,5.628924587130778e-05,0.019911489982856946,0.09044657998869417,-0.0005163215163215433,False,False,True
0,2.9824297750391158,0.06362570864982413,2.8902239692769864,3.1377017250579478,0.15974728491835705,0.06892660533944975,0.036074274225976005,0.32826707930815546,0.1284160357721679,0.27383452548995707,7.019314063327897e-08,1.9032188712287565,2.4496069424928897,0.03522671127032418,2.338093001586443,2.505462274188053,-0.11621040723981921,20.341884913623957,-74.72,68.59,33.49127272727273,0.02197200432698647,33.45,33.55,3.210060836480224e-05,1.6629037944019241e-06,1.434516220750923e-05,5.627717481407468e-05,-0.004369637130743998,0.0020659140159962437,-0.005466330175358475,0.030337164762301423,2.7543884222049628e-05,1.426852384381463e-06,1.230884731217119e-05,4.828855484005621e-05,0.04003162004328715,0.0020737529989939304,0.01788938316757878,0.07018142627280906,0.004664005454621564,0.0012678986019812228,6.023936838859253e-05,0.030337241733108148,0.1900452488687783,-0.0004804904988391222,False,False,True
0,2.954927342013892,0.06371094006733093,2.7972840294386665,3.131449176335348,0.177451670699207,0.17456191799109388,0.016643868177004497,0.5968046696532676,0.12271939478357177,0.25462176329821007,2.4350623295532614e-08,1.5366230774477625,2.3958924399576618,0.12336962215243842,2.203951561815601,2.5312844622222186,0.041888072357262975,69.93382246281996,-439.06,408.67,33.42189189189189,0.0264751517641301,33.39,33.49,2.9700283683865268e-05,7.8927502161409e-06,-3.86215905586787e-06,7.007060001360278e-05,-0.005511986304777786,0.006391404068517394,-0.04674684873810759,0.020638922600158215,2.548428882884987e-05,6.772363803089607e-06,-3.313920430199936e-06,6.012398494791312e-05,0.03703825354643429,0.009842790957680703,-0.00481637239127121,0.0873827562416348,0.007326329902815569,0.004187149497610766,0.0006518986485431575,0.04674686977362045,0.14471452798191067,-0.0007093717093717439,False,False,True
0,3.008552174576824,0.05132607419578372,2.916541838221044,3.1554504221675064,0.07551069780779293,0.06255051628318796,0.006669720153212465,0.2670706218870827,0.05677979016294994,0.19407685303926983,5.759159593665686e-08,1.6724736813583043,2.567705567653607,0.02303004338246286,2.502850925536518,2.595234460166021,0.07824095022624442,12.115632911828868,-34.64,34.69,33.344545454545454,0.022732443114961004,33.31,33.39,3.1375361302275015e-05,1.8957778256935157e-07,3.089727244694296e-05,3.2000746462905206e-05,-0.007168650548508522,0.00034528267772888644,-0.007531158112225736,-0.006155051714719676,2.6921586946695343e-05,1.6266696365445525e-07,2.651136344159949e-05,2.745819785022804e-05,0.0391271881236593,0.0002364162595991988,0.03853097913016968,0.03990708552767574,0.007168770031676653,0.0003452771209264993,0.0061551863582437385,0.0075312681538489724,0.1809954751131222,-0.0005016793273673961,False,False,True
0,2.943318160415182,0.048508584039207284,2.8447067337466723,3.0740838943273943,0.154860834277426,0.13564815246541087,0.004116390058517677,0.4680376356996736,0.12028606772315971,0.3401630143134935,2.8674663532513023e-08,2.273835402404695,2.403506553412963,0.09238101599966146,2.2586545169926238,2.568721130109209,0.008332391181458232,87.33159173148923,-440.19,349.18,33.274684684684686,0.040267736234988326,33.21,33.33,3.0128959939222638e-05,1.435202270170024e-06,2.3172954335207218e-05,3.917332756665982e-05,-0.01395962648619766,0.0042452127811726656,-0.02680399942400046,0.0069159540397633786,2.5852113918397145e-05,1.2314733950067768e-06,1.9883522581199616e-05,3.3612621506313634e-05,0.03757284170068441,0.0017897938665768812,0.02889823434762726,0.04885177711146513,0.013980159740903665,0.00417720822401149,0.0006550180500929153,0.0268040193890843,0.09496890898812888,-0.0011786591786591884,False,False,True
0,2.840840772908993,0.042197434391642814,2.7719996933918507,2.938829343979432,0.06699939996412345,0.042867496360216396,0.01319228807056216,0.2057286468020946,0.053974475780247874,0.14014049038917795,3.938120107793708e-08,0.9226752369831002,2.3575115447693857,0.04284699357366028,2.2918072539594063,2.4611631478390623,0.1811481900452463,75.29617227479446,-376.22,598.47,33.19463636363636,0.02321330181492853,33.16,33.23,3.063388668068953e-05,2.5597843610202415e-06,1.655211023943373e-06,7.007060001360278e-05,-0.012930048413456125,0.004206668910198884,-0.024734493102876,0.005539847642257319,2.628536563592005e-05,2.196419559159006e-06,1.4202516129428298e-06,6.012398494791312e-05,0.03820251934524459,0.0031922234547264844,0.00206415959625909,0.0873827562416348,0.013029234406151315,0.0038884434798798838,5.826430712995015e-05,0.02473452311483424,0.14932126696832582,-0.0004504203953745321,False,False,True
0,2.67145437070282,0.051955898437012656,2.582309838637935,2.7778657781691503,0.02197400913065565,0.01060784928613837,0.0036962303221630983,0.04995123263326503,0.014475576400530061,0.041880817586492765,5.2473324491097983e-08,0.22488128255637463,2.1817165604536872,0.061228942547857095,2.071084414654519,2.2897147796875545,-0.10628959276018078,21.496322172102865,-96.21,73.8,33.15045045045045,0.019087710819808944,33.13,33.21,3.092411033307779e-05,1.2716773599505477e-07,3.0345535438961837e-05,3.144900945492408e-05,-0.012364621489612801,0.00035378047457627416,-0.013723636901003006,-0.010971424105990887,2.6534391654026536e-05,1.0911610637475168e-07,2.6037946237285214e-05,2.6984780645913764e-05,0.03856444778124025,0.00015858672930015402,0.03784292593141665,0.03921903232892271,0.01236468868707685,0.00035377857244883867,0.010971499642590074,0.013723697289156723,0.26696832579185525,-0.00047077922077916844,False,False,True
0,2.4999808533466017,0.040174365155324514,2.4302422917649777,2.583013906742558,0.006816148524533999,0.00545428844947824,0.000600792893633454,0.0209043688768963,0.005079595942299091,0.01959863611984784,8.26533648745631e-08,0.11967757413581959,1.973293192020298,0.0501913762386154,1.881384815838371,2.0687037069957315,0.10670435274166169,20.875406752023544,-95.81,70.22,33.13,0.015325220563538095,33.11,33.15,3.091285823812887e-05,9.515520280269151e-08,3.0345535438961837e-05,3.144900945492408e-05,-0.012323410325331354,0.00019350457668674772,-0.013035583702249977,-0.011658808964135747,2.6524736808952998e-05,8.164779493702183e-08,2.6037946237285214e-05,2.6984780645913764e-05,0.0385504156612079,0.0001186649449272143,0.03784292593141665,0.03921903232892271,0.01232347766073064,0.0001935034750170126,0.011658882608586222,0.013035647277837853,0.21707179197286602,-0.00023370827040550542,False,False,True
0,2.3517744192696566,0.04775682245558272,2.268606598782572,2.4398356929635443,0.010794620395296398,0.0069229640524547855,0.00086165533977844,0.02572517782780742,0.007544572992653792,0.02837048750815354,7.736900699273352e-08,0.18883109787053085,1.7760043722011758,0.06358553345112287,1.6683547182591758,1.879510939408432,0.1545135746606336,14.427249966142341,-43.71,30.47,33.11504504504505,0.014885861130242557,33.09,33.13,3.090288967892467e-05,6.13241750260183e-08,3.0345535438961837e-05,3.144900945492408e-05,-0.012630061381417623,0.00034805583282112353,-0.013036252042858147,-0.011658808964135747,2.651618330001445e-05,5.261912664500934e-08,2.6037946237285214e-05,2.6984780645913764e-05,0.03853798419667282,7.647537536395719e-05,0.03784292593141665,0.03921903232892271,0.012630127072784847,0.00034805400168973596,0.011658882608586222,0.013036313365023432,0.23076923076923078,-0.000206739206739203,False,False,True
0,2.2276289889089194,0.029531283264932352,2.1634817886450715,2.2653661237213543,0.021664013215153394,0.01623733841664444,0.002546028483170925,0.0546339967028663,0.016948514457283518,0.051558795177893114,5.088599208669109e-08,0.32489610370982824,1.6034596017166172,0.04102576860625291,1.525763016282372,1.6668343292000993,-0.5275240248728097,68.44509094125434,-312.81,408.07,33.091454545454546,0.016414156098736504,33.07,33.13,2.9597819448507776e-05,1.8654922097641164e-06,1.7655584255395975e-05,3.9725064574640946e-05,-0.01579404061981722,0.004360185291449842,-0.032317113441930924,0.007607348941557266,2.539636952827107e-05,1.6006831041625612e-06,1.514935053805685e-05,3.408603871062791e-05,0.03691047374577623,0.0023263943937234877,0.02201770236009696,0.04953983031021816,0.015811308349793895,0.004297251894972199,0.0013412379265846553,0.03231712181555018,0.13566986998304126,-0.00028798773752903575,False,False,True
0,2.0989691325033837,0.03870527145941921,2.036515344023123,2.1895301695192617,0.014797277449006465,0.00988311608230088,0.004603698249403815,0.047305047012286175,0.01083669569783028,0.037706743703416444,6.765169391353965e-08,0.2683299536326732,1.4424731689896215,0.044500625798493454,1.371714783431701,1.5242531399152575,0.040107466063347884,37.930662576415635,-220.3,140.09,33.06207207207207,0.013559104094642269,33.03,33.09,2.922021663195961e-05,2.360432543964776e-07,2.7035113391075092e-05,3.144900945492408e-05,-0.016569725384552474,0.0005282357974752157,-0.01991812071160479,-0.01303692038346632,2.5072367934820682e-05,2.0253659982410875e-07,2.3197443011399553e-05,2.6984780645913764e-05,0.0364395776086206,0.00029436183160134885,0.03371460673889847,0.03921903232892271,0.01656977017344889,0.0005282341485096086,0.013036979492981082,0.01991815798069964,0.16289592760180996,-0.0001969111969112233,False,False,True
0,1.9792543121365156,0.033241659908848316,1.9223379424031097,2.040973289157309,0.00818203936272445,0.005292322547075759,0.0005251354137811679,0.019391378764148242,0.006882128364830248,0.026386723001038278,5.6740426343515615e-08,0.18325685178644924,1.2929939861756845,0.04289498343358843,1.2239490698938955,1.370268597788825,0.16942873303167438,37.28755700458439,-136.98,169.51,33.03127272727273,0.015686673530059786,33.0,33.07,2.9157802943273962e-05,2.003076061869998e-07,2.869032441501846e-05,2.9793798430980708e-05,-0.016745705991994785,0.00036914217857772854,-0.017166576257200843,-0.015102416660941751,2.5018813952432195e-05,1.7187367450830649e-07,2.461769462434238e-05,2.5564529032970932e-05,0.03636174353636346,0.00024979707211563904,0.03577876633515756,0.037154872732663616,0.016745750090873545,0.00036914116487612726,0.015102463976659392,0.017166617883552233,0.05882352941176471,-0.0003253161418298809,False,False,True
0,1.8757626875001812,0.029443545311580808,1.8251728431073508,1.9285646971962653,0.005922009728768018,0.0029311684058042535,0.0008051002378168926,0.012540142759668553,0.0038620705191765225,0.012591864187495586,5.325263953415149e-08,0.09559564338096854,1.1601871044905014,0.03752805421209847,1.0973666262607409,1.2228440285766726,-0.02027699265121533,29.22296071023777,-232.21,126.82,33.005315315315315,0.016993037067084688,32.97,33.03,2.906064281359562e-05,2.5934272185311905e-07,2.869032441501846e-05,2.9242061422999583e-05,-0.016850478411986173,0.00037730086868785674,-0.0178539611153457,-0.01578980151908661,2.493544583266179e-05,2.225286768205319e-07,2.461769462434238e-05,2.5091111828656657e-05,0.03624057831262569,0.0003234178363298427,0.03577876633515756,0.03646681953391059,0.0168505219493873,0.0003772997543818076,0.01578984853233871,0.017854002693242915,0.2125494629734313,-0.00032090207090206604,False,False,True
0,1.7791972183841256,0.02755285885643858,1.7338949289560397,1.8252011180357348,0.005626868393729995,0.004474382173949357,0.0001554386162557676,0.018857716823573414,0.0057202869135735196,0.018924632736730205,7.50965012310395e-08,0.11708265274020563,1.0346654363357684,0.03763192148903817,0.9657376385470746,1.0963044174454963,-0.21169117647058797,33.17908088711192,-208.19,115.8,32.97594594594595,0.013509483428545783,32.95,33.0,2.895807913947989e-05,3.0442023977526145e-07,2.7035113391075092e-05,3.0345535438961837e-05,-0.016804323479439456,0.0005023739168655744,-0.018541345973490556,-0.01303758872407449,2.4847441208789014e-05,2.6120738099195374e-07,2.3197443011399553e-05,2.6037946237285214e-05,0.03611267450514064,0.00037963253635815437,0.03371460673889847,0.03784292593141665,0.0168043668597407,0.0005023720947321966,0.013037645661704546,0.01854138753503211,0.16289592760180996,-0.00017356967356968927,False,False,True
0,1.7280206553197146,0.020707471050630484,1.6966552864141353,1.7764609249278402,0.02397971841338873,0.02281795380675406,0.00021077113809792655,0.08262892623911115,0.018380439162834442,0.06849518803674666,3.744846899245147e-08,0.53845943559671,0.9495612146720147,0.01095847084015029,0.9172789612970865,0.9645330019219136,0.21041266252119858,41.24686507488883,-191.43,204.43,32.95981818181818,0.01427012136025259,32.93,32.99,2.5892318751240882e-05,1.4667693006785688e-06,1.8759058271358226e-05,3.751811654271645e-05,-0.022324137855717803,0.0027366302381306097,-0.04330190436008524,0.001404176703049255,2.2216869593866244e-05,1.2585594434604444e-06,1.6096184946685404e-05,3.219236989337081e-05,0.032289464875870415,0.001829160079106314,0.02339380875760302,0.04678761751520604,0.022327342309034014,0.0027105476363796796,0.0006619586389191756,0.043301932580056025,0.19446014697569247,-0.0001478709735590539,False,False,True
0,1.6608068022957203,0.017144841054428015,1.6271163754056601,1.7036458536044499,0.0073331426909486125,0.006698632225891133,0.0002368236904867792,0.02374921649508558,0.0041244139910245415,0.01925550385780677,5.208110728793791e-08,0.12398233818804123,0.8785556793270254,0.017682613078355183,0.8412302598994721,0.9159965478517396,0.2719796380090494,54.78233498090392,-350.3,287.53,32.94153153153153,0.015620394489153302,32.91,32.97,2.6568258999706448e-05,8.991461936328574e-07,2.2069480319244968e-05,2.9242061422999583e-05,-0.021769140468397886,0.00157382657127836,-0.03093165027591047,-0.01854201431409873,2.2796859223133625e-05,7.715111930176225e-07,1.8936688172571062e-05,2.5091111828656657e-05,0.033132407878415135,0.0011212958451698857,0.027522127950121197,0.03646681953391059,0.021769168900928997,0.0015738230939424888,0.018542054349135407,0.030931668354240795,0.13122171945701358,-0.00017409617409618757,False,False,True
0,0.4279837796160512,0.001324543830737016,0.42476286594323803,0.4311083485275093,0.0012765111184519732,0.0019239984609178919,1.6102883144898377e-05,0.010296044392759586,0.0003590954373861742,0.00280849815647862,7.441678694878467e-08,0.028161842064431786,-0.7230330140886795,0.0027131031537734785,-0.733619038137061,-0.7197465917246602,-0.014126625211984241,17.562328984620677,-45.65,25.95,34.16718181818182,0.012276016610442973,34.13,34.18,3.2212328867549556e-05,2.697067570384474e-07,3.144900945492408e-05,3.255248347088633e-05,-0.014676289647620423,0.0003386438129951549,-0.01578645981604575,-0.01440968507793152,2.7639745850525032e-05,2.3142152339757665e-07,2.6984780645913764e-05,2.7931615054542318e-05,0.0401709430326274,0.00033634248604175426,0.03921903232892271,0.04059513872642877,0.014676351073491278,0.00033864189777831885,0.01440974891816169,0.015786516130040555,0.13566986998304126,-8.660370128259175e-05,True,False,False
0,0.42749109835077254,0.0015728638391062971,0.4245383164682577,0.4306969246593194,0.0002708429575231109,0.0003758669067796514,2.8953155309278817e-06,0.0012066100094221565,0.00020683416592098564,0.001234871092361748,8.706562764134319e-08,0.00998298791031773,-0.722638721539065,0.0013478924625073936,-0.7253493398217833,-0.7212382166500682,-0.11111425339366526,15.787332071506096,-38.52,21.91,34.14261261261261,0.012483568233459162,34.11,34.16,3.249568701418239e-05,1.6775787680773698e-07,3.2000746462905206e-05,3.255248347088633e-05,-0.014408197196254866,3.271272509662953e-05,-0.014410353418539693,-0.01372163187917849,2.7882880930568792e-05,1.4394442259841192e-07,2.745819785022804e-05,2.7931615054542318e-05,0.04052430972067478,0.00020920536792690437,0.03990708552767574,0.04059513872642877,0.014408260822548839,3.2712558332968036e-05,0.013721698920577842,0.014410415110177151,0.14479638009049775,-0.00015988065988063543,True,False,False
0,0.42873529076749395,0.0025577854989885253,0.42285823477698287,0.4362795135218463,0.0011748711871023114,0.0019788594069322777,9.711455446271474e-07,0.0078090838037499985,0.0010253618846396092,0.007499489528746234,8.628067821506413e-08,0.07704114463162332,-0.7217682329546282,0.0012628904997818659,-0.7251381606402749,-0.7203294141280325,0.17503109101187092,16.202307762264233,-39.48,24.84,34.10873873873874,0.016018007884145605,34.09,34.15,3.2528793068283744e-05,1.1190973079697537e-07,3.2000746462905206e-05,3.255248347088633e-05,-0.014363843561792178,0.0001717202522753303,-0.014410353418539693,-0.01372163187917849,2.7911287536164984e-05,9.602399535120607e-08,2.745819785022804e-05,2.7931615054542318e-05,0.04056559519925067,0.0001395589694593839,0.03990708552767574,0.04059513872642877,0.014363907522568132,0.000171719479270688,0.013721698920577842,0.014410415110177151,0.1492368569813454,-0.00027167427167425575,True,False,False
0,0.4320013347020152,0.0019985522765978044,0.4279129705338673,0.43655237853787693,0.0007545267706245461,0.0007737246353176666,1.6750251168238664e-05,0.0028036706438913307,0.00045856446775553353,0.002886052451497719,7.02255825088538e-08,0.022477197708608027,-0.7173155632312118,0.0016708201354187612,-0.7212633500928773,-0.7157024302068795,-0.06763009049773741,15.538997806841282,-35.61,28.86,34.08309090909091,0.014698527327184904,34.05,34.11,3.203881881300346e-05,1.3992343760003356e-07,3.2000746462905206e-05,3.255248347088633e-05,-0.015074231936366884,0.00032253220445275566,-0.01578645981604575,-0.01372163187917849,2.749086577948502e-05,1.2006111913543748e-07,2.745819785022804e-05,2.7931615054542318e-05,0.039954564311752594,0.0001744939480741104,0.03990708552767574,0.04059513872642877,0.01507429108710695,0.0003225305905642288,0.013721698920577842,0.015786516130040555,0.16289592760180996,-0.00028221716295111405,True,False,False
0,0.4308362175154357,0.0015168740553509043,0.42581853436505923,0.43434642748119123,0.000109800965362106,0.00021929422241937725,3.601864294636977e-07,0.0008478061014080256,8.346242876933854e-05,0.0008691257456310194,9.106170761451898e-08,0.00915764604222997,-0.7180931349672093,0.000798826984587735,-0.7191820498453787,-0.716775014911488,-0.08847285067873312,15.296894448974827,-35.67,31.37,34.050000000000004,0.014270121360253211,34.03,34.07,3.2000746462905206e-05,0.0,3.2000746462905206e-05,3.2000746462905206e-05,-0.015477458549184945,0.0003424327297687239,-0.01578645981604575,-0.015098406617292724,2.745819785022804e-05,0.0,2.745819785022804e-05,2.745819785022804e-05,0.03990708552767574,0.0,0.03990708552767574,0.03990708552767574,0.015477516015687415,0.0003424314525689584,0.015098465497576635,0.015786516130040555,0.16289592760180996,-0.00021340821340821818,True,False,False
0,0.4287232974400547,0.0014361695019272174,0.42427790531231446,0.4316315143351893,0.000282019178726494,0.00042692748707493167,2.3923596582446036e-07,0.001569096270743706,0.00022983715706881768,0.00142692375050764,6.364800372252871e-08,0.012801616261021546,-0.7211620153933981,0.0009513728880529195,-0.7231936069143698,-0.7186026292946384,0.09676653476540419,16.57703983927488,-38.86,23.58,34.04563636363636,0.013648757225897392,34.03,34.07,3.1964546523467535e-05,1.3918708526706817e-07,3.144900945492408e-05,3.255248347088633e-05,-0.015829312406189067,0.00018464513436914113,-0.016475181355406956,-0.015098406617292724,2.7427136540442717e-05,1.1942929299758313e-07,2.6984780645913764e-05,2.7931615054542318e-05,0.0398619417657666,0.00017357566713449907,0.03921903232892271,0.04059513872642877,0.015829368449798303,0.00018464444825745568,0.015098465497576635,0.016475233470641053,0.16732617297908423,-3.0295516534036467e-05,True,False,False
0,0.42718206545125414,0.001740495750353272,0.41845615629245325,0.4310204926226662,0.00031120247096933775,0.0006096744935078427,4.457702285885593e-07,0.002359946033859297,0.00022660592342014214,0.0023836148357603195,6.529653825363552e-08,0.025113303457641484,-0.7230188259348381,0.0006248872302940688,-0.7244167924838463,-0.7220743879044949,-0.36283936651583715,18.28321563138292,-44.24,31.99,34.043153153153156,0.01525432767100812,34.0,34.07,3.179041233203458e-05,2.6812310785210645e-07,3.144900945492408e-05,3.2000746462905206e-05,-0.016262280783492646,0.0003180729932633848,-0.016475181355406956,-0.01578645981604575,2.7277720929578818e-05,2.3006267532400278e-07,2.6984780645913764e-05,2.745819785022804e-05,0.03964478470416921,0.00033436756887541457,0.03921903232892271,0.03990708552767574,0.016262334758720434,0.0003180719003267522,0.015786516130040555,0.016475233470641053,0.16289592760180996,8.932958932959673e-05,True,False,False
0,0.42437150567077,0.0014396949763405805,0.42001430860864014,0.42726503009664657,0.00030119794603311535,0.0005907713645045057,1.871751612560083e-07,0.002194400798470666,0.00023178885179084722,0.0021037415215861784,1.056780148696307e-07,0.021794320200582872,-0.7266524927168138,0.0009428312294336068,-0.7291949987934103,-0.7245037593498992,0.4201752402487283,23.833119791746423,-131.69,90.46,34.057818181818185,0.014613165999095502,34.03,34.09,3.0103643959756548e-05,1.1436085412101157e-06,2.869032441501846e-05,3.2000746462905206e-05,-0.019735928573717844,0.0023115233247391035,-0.02198228030786388,-0.01578645981604575,2.5830391575958726e-05,9.81271784524092e-07,2.461769462434238e-05,2.745819785022804e-05,0.037541270969703465,0.0014261568528457788,0.03577876633515756,0.03990708552767574,0.019735969511925154,0.002311514618873596,0.015786516130040555,0.02198231407735658,0.1537591859807801,0.00027707774496766116,True,False,False
0,0.4200964965598528,0.0016037508339165722,0.4161792200144519,0.42465696806903297,4.4535631597712825e-07,3.2790271902954576e-07,2.162024785555093e-07,2.0573727338926047e-06,2.383611315695115e-07,1.232966648128144e-07,1.0235287745335418e-07,7.168416122829008e-07,-0.7320026961900175,0.001112590121934304,-0.7339521683558895,-0.7293081477357387,-0.13809954751131237,17.33595872679294,-39.62,27.89,34.08225225225226,0.017719259408118377,34.05,34.13,2.9243933833660154e-05,3.2105113727813564e-08,2.9242061422999583e-05,2.9793798430980708e-05,-0.02144210957827516,0.0002827964134857735,-0.02198228030786388,-0.02129355876850268,2.5092718448128314e-05,2.7547750042776377e-08,2.5091111828656657e-05,2.5564529032970932e-05,0.0364691545560783,4.003723853431922e-05,0.03646681953391059,0.037154872732663616,0.021442144208904036,0.0002827959626432206,0.021293594958185124,0.02198231407735658,0.16742081447963802,0.0004117234117234347,True,False,False
0,0.4165973449147015,0.0013622478144311582,0.4121194045568654,0.4193164644439689,4.770596474095447e-05,9.583563358178528e-05,2.0822563789455637e-07,0.00036851212662532485,3.672401451911242e-05,0.00038138436236580324,9.430944353325948e-08,0.004000345625394005,-0.7366565157014068,0.0012248661311824237,-0.7378069777211242,-0.7340001972681947,-0.25414592760181015,17.49677878204423,-40.22,28.42,34.11981818181818,0.01739881985778599,34.09,34.16,2.9242685559886443e-05,3.215366591241867e-08,2.869032441501846e-05,2.9793798430980708e-05,-0.02180715288924393,0.00030166177977215076,-0.022669665166008737,-0.02129422710911085,2.5091647368480546e-05,2.7589410180063953e-08,2.461769462434238e-05,2.5564529032970932e-05,0.03646759787463316,4.009778637765907e-05,0.03577876633515756,0.037154872732663616,0.021807186937975464,0.00030166130564456743,0.021294261969752332,0.02266969915888871,0.16289592760180996,0.000433875076076912,True,False,False
0,0.4146292961318784,0.0012484965751308399,0.41209669583778813,0.41835113068076096,0.00015589178150222067,0.00031470213376501126,1.9879718612981396e-07,0.0012160652205788973,0.00011989801301914641,0.0008991740365525967,8.889257808251041e-08,0.007723780005132761,-0.7392361112050578,0.0007015755924505219,-0.7405466297354806,-0.7376417946192708,0.3548049745618993,23.6509185839147,-100.25,95.93,34.15171171171171,0.012050942918509824,34.13,34.18,2.8718410574927005e-05,3.622834483826231e-07,2.7586850399056214e-05,3.0345535438961837e-05,-0.022941830396816357,0.0006133389060077779,-0.02404777658533931,-0.02060617391035782,2.4641793916417207e-05,3.108568300143912e-07,2.367086021571383e-05,2.6037946237285214e-05,0.03581379166767327,0.00045179185356272235,0.0344026599376515,0.03784292593141665,0.022941861647297425,0.0006133375228949257,0.0206062099350162,0.024047805168551806,0.1628038439796495,0.0002690417690417281,True,False,False
0,0.4134209848466616,0.001169850084443434,0.41033224642936844,0.416160501822994,3.4222113377822315e-07,1.0868675616774007e-07,1.954972944928491e-07,5.553563612372661e-07,2.47673879948554e-07,1.7720923929278078e-07,9.119055621656273e-08,1.148431003069177e-06,-0.7407301892194446,0.00039409676039199674,-0.7419257177470955,-0.740365006163982,-0.004179864253393658,17.647387227407012,-76.19,37.88,34.18627272727272,0.02022166568648591,34.15,34.21,2.8518686771132934e-05,2.555645575091888e-07,2.813858740703734e-05,2.869032441501846e-05,-0.023359262957366397,3.0957533991985505e-07,-0.023359723386586283,-0.023359055045978114,2.447042117277403e-05,2.1928682794095747e-07,2.4144277420028106e-05,2.461769462434238e-05,0.03556472263645045,0.0003187062109999268,0.03509071313640453,0.03577876633515756,0.0233592931858394,3.0903519606482e-07,0.023359085637212756,0.023359752811707137,0.15384615384615385,0.0002755900187093025,True,False,False
0,0.4116242414475676,0.0034696180628624646,0.4012496750736852,0.4187760376617641,0.0031633553803151774,0.003867037490202584,1.6267930310323673e-07,0.01123006065682904,0.0026160683928979052,0.012895023536336083,3.51351625293983e-08,0.12110654394145638,-0.7462164177643865,0.00225654156071631,-0.7490813907415772,-0.7419867498932631,-0.14626342566421704,54.31240610383628,-389.53,293.06,34.23414414414414,0.031979211101432474,34.18,34.29,2.9700907115512697e-05,1.695082716584369e-06,2.482816535915059e-05,4.193201260656545e-05,-0.020146138498888154,0.004169129198782765,-0.024733824762267827,-0.001339347664056638,2.5484823763544013e-05,1.4544634656703617e-06,2.1303774194142445e-05,3.5979707527885024e-05,0.03703903100767582,0.0021138822816408817,0.03096239394388635,0.05229204310523028,0.020146181960978074,0.004169103434577124,0.0013399443986148478,0.02473385591827814,0.18089315997738833,0.0008074763074763302,True,False,False
