,EDA_mean,EDA_std,EDA_min,EDA_max,EDA_phasic_mean,EDA_phasic_std,EDA_phasic_min,EDA_phasic_max,EDA_smna_mean,EDA_smna_std,EDA_smna_min,EDA_smna_max,EDA_tonic_mean,EDA_tonic_std,EDA_tonic_min,EDA_tonic_max,BVP_mean,BVP_std,BVP_min,BVP_max,TEMP_mean,TEMP_std,TEMP_min,TEMP_max,ACC_x_mean,ACC_x_std,ACC_x_min,ACC_x_max,ACC_y_mean,ACC_y_std,ACC_y_min,ACC_y_max,ACC_z_mean,ACC_z_std,ACC_z_min,ACC_z_max,Resp_mean,Resp_std,Resp_min,Resp_max,net_acc_mean,net_acc_std,net_acc_min,net_acc_max,BVP_peak_freq,TEMP_slope,0,1,2
0,5.168087855226707,0.1145721810743442,4.716893857395086,5.281928425825075,0.22790050984801752,0.2221560717304109,0.004570789416568521,0.6840773165798552,0.20899937377221603,0.38880968431693363,2.947114197127121e-08,2.3162238358999776,2.0900843633689865,0.31653054344397386,1.4118220228226204,2.366156475447919,-0.6517015262860374,50.753927905517465,-248.08,193.79,34.06207207207208,0.014592471104656893,34.03,34.09,-2.8575612991890185e-05,5.845158349458947e-06,-4.193201260656545e-05,1.1586477167603609e-05,0.01388271892741452,0.015640836616787578,-0.0426887053094474,0.0715602060327478,-2.4519266640620543e-05,5.015430331020637e-06,-3.5979707527885024e-05,9.941761290599808e-06,-0.03563571346671625,0.007289306030565926,-0.05229204310523028,0.01444911717381363,0.019414334193391686,0.007761598137453738,0.001336073818616925,0.07156020609183512,0.14471452798191067,0.0002228852228852455,False,True,False
0,4.8221987888332905,0.058954033862754066,4.6591825683364,4.956112578628051,0.44183176257368545,0.2137706138881072,0.03095941503435401,0.7309323073663492,0.2999150976322906,0.4713271347258126,3.4465216458556824e-08,2.108124050888719,1.4716442412424042,0.21021344965070884,1.255561665665829,1.8797487253055256,0.4560180995475117,45.9100904408022,-214.87,276.26,34.075818181818185,0.009125206362561093,34.07,34.09,-2.6691838103304028e-05,4.679500585185466e-06,-4.744938268637668e-05,2.206948031924497e-06,0.0015375803704024977,0.024992598590281585,-0.03786163946844545,0.04814367369446696,-2.290289610826284e-05,4.0152392400353816e-06,-4.071387957102778e-05,1.8936688172571063e-06,-0.03328651934148426,0.005835652311932079,-0.059172575092760575,0.00275221279501212,0.02399259588412501,0.007120499635234587,0.0013283781127521245,0.0481436786347193,0.14932126696832582,0.00012406735342517097,False,True,False
0,4.7479098489981615,0.03951700299050156,4.686902284806271,4.819631156409575,0.013178408698861884,0.010828720414630889,0.00034776521253505514,0.038441857184565165,0.009152643196680292,0.02765509027767688,6.509296912593499e-08,0.15234586878601453,1.8138143717919761,0.04152338578977167,1.7546257690681502,1.8913431198907809,0.35862634256642123,33.17760895300085,-159.49,103.83,34.09,0.012060453783110716,34.05,34.11,-2.6671241586037765e-05,2.53651124765278e-06,-7.06223370215839e-05,-1.3793425199528107e-05,0.026983120222070056,0.003011470271492099,0.0006546361683444646,0.0873058970716951,-2.288522329407464e-05,2.176450095253677e-06,-6.05974021522274e-05,-1.1835430107856916e-05,-0.0332608340976394,0.0031632003153216825,-0.08807080944038784,-0.01720132996882575,0.02698314472032267,0.0030114576666076527,0.0006556446116937239,0.0873059371028274,0.14019219898247595,0.00021902421902422184,False,True,False
0,4.645927266828301,0.0270088895636355,4.591930030541071,4.6919114957464,0.029821924762410405,0.026257657137916588,0.0016735784810957273,0.0737465925265131,0.022718800953131064,0.06791530986252864,4.0413277377360224e-08,0.577489408759818,1.677868788994233,0.028980975185802126,1.6438608627217282,1.7527821826586039,-0.2912443438914025,32.29916957817924,-80.7,137.85,34.10690909090909,0.017803486646739936,34.07,34.13,-2.8100515056939094e-05,1.6697054539398274e-06,-4.248374961454656e-05,-1.655211023943373e-06,0.02624118686007137,0.002842032369644353,-0.0048678346181004,0.039905080505851225,-2.4111609490771126e-05,1.4326885392823539e-06,-3.64531247321993e-05,-1.4202516129428298e-06,-0.03504323435232768,0.0020822351264100486,-0.05298009630398331,-0.00206415959625909,0.026258555454983325,0.002676872422373229,0.0006537676004950153,0.03990508056545314,0.16742081447963802,0.00030701260059057235,False,True,False
0,4.527603797861135,0.035024317444897424,4.476822287303822,4.595736472241769,0.0033967791992339947,0.002217597868406287,7.361264483318617e-05,0.007391523689626223,0.0026826207916301136,0.009590317332565105,6.695292147605725e-08,0.06925995166962554,1.5659496205735395,0.03955533569341236,1.5051604944865102,1.6423887639562802,-0.27922555115884656,36.65133209538165,-95.04,52.74,34.10207207207207,0.012440192713875538,34.09,34.13,-2.788734445312051e-05,3.068840599308443e-07,-2.9242061422999583e-05,-2.5931639375112838e-05,0.02714781889572736,0.00043274478452324817,0.024734493102876,0.028866822339043207,-2.392869873828952e-05,2.6332145859254206e-07,-2.5091111828656657e-05,-2.2250608602771e-05,-0.034777396256068405,0.00038270508598719415,-0.03646681953391059,-0.03233850034139241,0.027147843780858653,0.00043274396931182045,0.02473452311483424,0.02886684256189769,0.1537591859807801,-9.301509301507774e-05,False,True,False
0,4.417832061896458,0.03554862254384935,4.35205152911939,4.4814748318264375,0.004426487348854328,0.00306881375889577,0.0010027460564840955,0.014132490897938792,0.003050243309597249,0.010337561312242402,6.21728913768882e-08,0.06547454201209896,1.4365548651303488,0.03983193520818042,1.3647259932676565,1.504028646000754,0.7128733031674209,40.38356041350917,-99.57,111.48,34.08745454545455,0.012738467613137745,34.07,34.13,-2.8082415087220258e-05,1.6639189660733986e-06,-4.910459371032006e-05,-1.2689951183565858e-05,0.026373526708109434,0.00224247810414304,0.010294064356968597,0.05088920308339737,-2.4096078835878463e-05,1.4277234510810983e-06,-4.2134131183970615e-05,-1.088859569922836e-05,-0.03502066247137311,0.0020750189864222482,-0.06123673468901967,-0.01582522357131969,0.026373553040430722,0.002242474776282113,0.010294105432019423,0.05088921139223304,0.15384615384615385,-6.347632035705653e-05,False,True,False
0,4.288510892183413,0.0470737534378172,4.204603988309098,4.358050919480983,0.027167471525740113,0.026438683171564257,0.0009567933545597385,0.100628491555484,0.025134423381072187,0.06406679494128577,3.373678847395922e-08,0.38801208669299436,1.2623391034025875,0.07492946177287947,1.0870450419775393,1.3629345858791226,-0.11230203619909448,43.263754929766876,-157.05,118.2,34.07378378378378,0.012214302648503345,34.05,34.09,-2.0588403486734557e-05,1.44408104023129e-06,-3.9725064574640946e-05,-1.6000373231452603e-05,0.034806586137732014,0.002563263077451448,0.011648783855013176,0.03919564040763671,-1.766585217049213e-05,1.2390918118237567e-06,-3.408603871062791e-05,-1.372909892511402e-05,-0.025675125415459504,0.0018008662906725567,-0.04953983031021816,-0.01995354276383787,0.03480659712048925,0.002563258202479115,0.011648901460635937,0.039195648666954006,0.14479638009049775,7.599157599158787e-05,False,True,False
0,4.062234114231913,0.04748837589111701,3.9169863881603657,4.182220920683604,0.054988963182365194,0.06502635292507372,0.0015772818437966355,0.25555449477013314,0.05552617070909695,0.16170502126539746,2.6157835009144037e-08,1.0653093632078194,0.971312326485229,0.09115092917662043,0.7376391162095403,1.083157488613605,-1.9042679479932163,43.677091034835044,-145.07,114.3,34.08709090909091,0.012946286672846754,34.05,34.11,-3.1311075202928797e-05,3.47542141620684e-06,-4.303548662252769e-05,-6.620844095773492e-06,0.016366380739399014,0.011546623926111858,-0.03236389728450292,0.04607149401090981,-2.68664263448352e-05,2.9820807139529337e-06,-3.6926541936513574e-05,-5.681006451771319e-06,-0.03904701902923445,0.004334084514623879,-0.05366814950273634,-0.00825663838503636,0.019549485730507275,0.004344283961031733,6.616455216451966e-05,0.046071504129316,0.1628038439796495,0.00012118206613619353,False,True,False
0,4.01957469392883,0.03135356284013137,3.965526326523834,4.113610764314689,0.117541961915697,0.1252881385506831,0.005230729175697416,0.3616130926426093,0.07321134592257297,0.23312534226148285,6.520732642734117e-08,2.1309507278651854,0.8579390983189847,0.09472996755603796,0.6970091653355602,0.9525518086511873,1.5900904977375554,38.39811467400609,-88.45,223.72,34.09612612612613,0.016578801972900854,34.07,34.13,-3.0942210302796624e-05,1.9163291671943634e-06,-4.744938268637668e-05,-9.931266143660237e-06,0.017574812361304145,0.002624863253808332,0.006838426529215507,0.03575203271083071,-2.6549922308919206e-05,1.644303687727431e-06,-4.071387957102778e-05,-8.521509677656977e-06,-0.03858701966219481,0.002389791502615538,-0.059172575092760575,-0.01238495757755454,0.017574861071415995,0.0026248549664783377,0.0068385799082203375,0.03575204453757057,0.15837104072398192,0.00015742365742365746,False,True,False
0,3.8950478674829623,0.06355933007986213,3.808299340412681,3.976863979269095,0.05822172744533521,0.040909397636681756,0.0008067133907227761,0.14739095078190717,0.04510773678103057,0.11380263105884725,3.624481470509977e-08,0.7905600732293587,0.7717758403032638,0.09543135988890653,0.6695860360587607,0.9205389043545192,0.14240248728094962,43.20323485543251,-125.95,145.73,34.10272727272727,0.015017365538705075,34.07,34.13,-3.203939922504626e-05,1.7734882690260185e-06,-4.027680158262207e-05,-2.0966006303282724e-05,0.005627326951386374,0.011660563977383395,-0.013115116234622361,0.026115946225247433,-2.749136380126475e-05,1.5217392454398989e-06,-3.455945591494219e-05,-1.7989853763942512e-05,-0.039955288124650525,0.0022116592847729964,-0.050227883508971186,-0.02614602155261514,0.010883428285168566,0.007006437719190015,0.0006543923788412604,0.02611596671633286,0.16732617297908423,0.0002632824651173277,False,True,False
0,3.52635904206524,0.23620763680462664,3.230427515706895,3.8051168668790747,0.32205045562493523,0.21670442975708004,0.004425297661312172,0.6605033836203538,0.25586450482233414,0.34249553823558493,1.601029175901658e-08,1.8845502516299995,0.07743843059965196,0.43377471796880984,-0.4379999284500474,0.7202930170705998,-0.0003902714932137294,38.57878848115712,-270.7,116.57,34.12495495495495,0.013874363138463722,34.11,34.15,-2.07756445527915e-05,1.1332244415291348e-05,-3.8069853550697574e-05,-7.72431811173574e-06,-0.025359378529453136,0.01834049530925589,-0.05575837438271411,0.00615237835228699,-1.7826514117657607e-05,9.723617216332975e-06,-3.2665787097685084e-05,-6.627840860399872e-06,-0.025908627632230893,0.014132071813567968,-0.04747567071395907,-0.00963274478254242,0.025449982324797584,0.018214445008979695,5.826430712995015e-05,0.05575838159154694,0.15837104072398192,0.0002123552123552201,False,True,False
0,3.1027086229897036,0.07009448499114447,2.992529520099376,3.224478596246974,0.016174126283305668,0.02602573928862192,0.00022663273630752628,0.14047663726385207,0.003744398832068746,0.014884079638459917,4.850669665934504e-08,0.12167970184518648,-0.11175560739100475,0.06830789598689713,-0.22605916881265836,-0.012952026498442348,-0.027098416289592468,36.631534749387335,-85.19,65.74,34.12218181818182,0.011524351416153211,34.11,34.15,-1.0315110329076968e-05,2.5400328246168676e-07,-1.0483003151641362e-05,-9.931266143660237e-06,-0.04210360469162625,0.0002610444100283353,-0.04267199679424311,-0.041983275254881915,-8.850866669346212e-06,2.179471779673976e-07,-8.994926881971256e-06,-8.521509677656977e-06,-0.01286363712193589,0.0003167591958912277,-0.01307301077630757,-0.01238495757755454,0.04210360688706146,0.0002610443712118271,0.04198327729433893,0.04267199902992546,0.15384615384615385,2.7139733561748558e-05,False,True,False
0,2.9305812249180194,0.041194435726190984,2.862294438603403,2.991678458516088,0.00784358400253605,0.0071121542591427184,0.0004768181632698762,0.04628869937028515,0.03892139895453021,0.34356790599637593,6.457140654114735e-08,3.6170886510729194,-0.3047254541986577,0.04874312489949418,-0.37338235424383315,-0.22782869191050642,-0.03140192198982438,36.23002013376796,-79.01,52.97,34.123333333333335,0.015095654602526742,34.09,34.15,-1.0396872261255167e-05,1.4504545611199358e-06,-2.3172954335207218e-05,-9.931266143660237e-06,-0.041941030522033816,0.0014455577144663193,-0.0474890375261225,-0.028233573070160226,-8.921022386275134e-06,1.2445606029272975e-06,-1.9883522581199616e-05,-8.521509677656977e-06,-0.012965599756592729,0.0018088145003654292,-0.02889823434762726,-0.01238495757755454,0.041941032842198155,0.0014455565745290033,0.028233584536268265,0.04748903975205754,0.1628038439796495,0.00011547911547912067,False,True,False
0,3.124300573275265,0.05650890809046371,2.9884283407295835,3.2835111399285615,0.14189879334829242,0.08839919790844641,0.019290634699988075,0.3390895588141799,0.08638345384378938,0.2623129222195106,4.4833826540191524e-08,2.0542096491305104,-0.21246929034641981,0.07617495669878468,-0.36557183416464234,-0.13645364779730565,-0.23490950226244367,71.50200107135062,-523.08,303.81,34.14509090909091,0.012832402690025007,34.11,34.18,-2.672616563208113e-05,4.331420260821925e-06,-4.689764567839556e-05,-5.517370079811242e-06,-0.016600135069954183,0.019468100120835406,-0.044730141325028665,0.04333064300623661,-2.293235079857651e-05,3.716569381654898e-06,-4.024046236671351e-05,-4.7341720431427655e-06,-0.03332932808122567,0.00540157271035219,-0.058484521894007546,-0.006880531987530299,0.02459224124413991,0.007030043797390471,0.0006525207327744044,0.04473014191583562,0.15384615384615385,0.00022072447760517687,False,True,False
0,3.1582681339034266,0.04511543885409471,3.001052143817157,3.2311350674299413,0.09183287370169603,0.06271394180967936,0.01745785497449171,0.2645726546017336,0.08129533732771721,0.24017246744047224,4.197327219124247e-08,1.7899834544383426,-0.12259469126298887,0.09001968748184806,-0.30046119190979137,-0.024707412544824586,-0.8155624646693047,78.72428715776664,-282.9,436.48,34.1918018018018,0.022530714316974374,34.16,34.23,-2.927011584713422e-05,5.156712076090901e-06,-5.2415015758206804e-05,-2.758685039905621e-06,0.0114033312109601,0.01611421368232447,-0.05991743724320817,0.04951710672954033,-2.5115183889892977e-05,4.424709923754369e-06,-4.497463440985627e-05,-2.3670860215713828e-06,-0.036501805289779386,0.006430767172906605,-0.06536505388153785,-0.0034402659937651497,0.017558467218634476,0.009011323638144627,5.2339123354023015e-05,0.059917469109415596,0.11305822498586772,0.00043006318006319553,False,True,False
0,3.1455138433931378,0.03339744056461825,3.0746803734641794,3.209926188661906,0.08254198477223194,0.0774414181833042,0.009260886008050957,0.2594243074052418,0.047685616925957845,0.1643137012880859,4.774400652607369e-08,1.3973298780469814,-0.12831572871198227,0.0749398607271216,-0.2986562814348073,-0.040001086136054326,1.493088235294118,84.54970962718252,-334.69,306.89,34.238,0.018011209557517307,34.21,34.27,-2.6578869326783006e-05,4.715561019265158e-06,-4.248374961454656e-05,-5.517370079811242e-06,0.018219893920768754,0.01652552642756863,-0.053678174611858906,0.050895886489479084,-2.2805963400139672e-05,4.046180847434229e-06,-3.64531247321993e-05,-4.7341720431427655e-06,-0.03314563967069885,0.005880622101266572,-0.05298009630398331,-0.006880531987530299,0.023572657191726763,0.007009658365199575,0.0007216816342824017,0.05367817571958057,0.14932126696832582,0.0004315307801546464,False,True,False
0,3.1371934648071687,0.02648998470947053,3.0661406855761664,3.193666642623554,0.07163164256696472,0.05385791578688352,0.004787023413422159,0.1819093518005305,0.049931964652588874,0.1496567750490424,4.984835233479146e-08,1.1304660382410163,-0.12721924963095596,0.03811869234130007,-0.175427466990575,-0.06477638182445576,-0.47390616167326105,66.23471932759448,-245.93,328.81,34.263693693693696,0.01143582313513423,34.25,34.29,-2.7165558000428092e-05,3.97393236847554e-06,-5.296675276618793e-05,-1.6000373231452603e-05,0.0226510553161625,0.011591741446395996,-0.0433774268488086,0.06325210542088225,-2.3309370834591502e-05,3.4098273721056336e-06,-4.5448051614170555e-05,-1.372909892511402e-05,-0.033877279949915864,0.00495576123806316,-0.06605310708029088,-0.01995354276383787,0.02462484882970428,0.006399314797835178,5.9251837759271344e-05,0.06325212768556597,0.1582815149802148,9.371709371709172e-05,False,True,False
0,3.119938327406108,0.011191915171284483,3.0980888168167815,3.137372062087149,0.003852058780631772,0.005995550570740032,0.0001000186525173457,0.0284167622281544,0.006457493290040412,0.026532470193867817,6.751058964638013e-08,0.23054491923299336,-0.07946071229124095,0.017095685578259617,-0.12980172419882602,-0.0594941997072997,-0.0957692307692308,30.15042624392479,-71.92,58.1,34.28636363636364,0.01217059719967795,34.27,34.31,-2.9556626413975246e-05,2.732956364642414e-07,-2.9793798430980708e-05,-2.9242061422999583e-05,0.021208228584756378,0.00022964812829244817,0.020605505569749646,0.02198228030786388,-2.5361023899894664e-05,2.3450095660543002e-07,-2.5564529032970932e-05,-2.5091111828656657e-05,-0.03685910325808653,0.00034081806033373616,-0.037154872732663616,-0.03646681953391059,0.02120826435257983,0.00022964760429362488,0.020605542967865546,0.02198231407735658,0.15384615384615385,-5.554178031242504e-05,False,True,False
0,3.0864315726210183,0.01513937227767912,3.0267454772356266,3.1092611112730557,0.027019989417299627,0.02378299201310703,0.0007393730380790703,0.07648274920962002,0.01716067946973356,0.06722777709737814,4.819878651751708e-08,0.5114395528025856,-0.1418064990753492,0.03126750770940103,-0.18940997716481206,-0.10493967673615255,0.1684671945701357,44.428771860919866,-217.39,173.31,34.29702702702703,0.013388909562130529,34.27,34.33,-2.657262795791444e-05,4.32640481810881e-06,-5.517370079811243e-05,-5.517370079811242e-07,0.023889335304392228,0.00719415809940882,-0.01243641980438373,0.04402671629228769,-2.2800608001900818e-05,3.7122658877197536e-06,-4.734172043142766e-05,-4.734172043142766e-07,-0.03313785626347313,0.005395318115586925,-0.068805319875303,-0.00068805319875303,0.024102673396671666,0.006442596672212116,6.122689901791373e-05,0.04402671730670413,0.15384615384615385,0.00020709020709020514,False,True,False
0,3.076294128733409,0.00642440201120772,3.0620490596734715,3.0904042047135607,0.0007419526541900504,0.0006705334947109464,2.9000385414225474e-05,0.0025449357739117605,0.0005283431035726487,0.002777538119507834,8.147383806153541e-08,0.020595819810388744,-0.12732893915338783,0.0068783798886507845,-0.13837223429276752,-0.11431556313049465,-0.14781232334652386,41.39638899258474,-150.1,66.39,34.30963963963964,0.010438384403721976,34.29,34.33,-2.2359999466950287e-05,2.756349708951984e-07,-2.2621217327226096e-05,-2.2069480319244968e-05,0.030125971249926376,0.00026451050486125645,0.029558885581445263,0.030935660319559494,-1.9185967740040504e-05,2.365082193959256e-07,-1.941010537688534e-05,-1.8936688172571062e-05,-0.027884424888673643,0.00034373536788224096,-0.02821018114887423,-0.027522127950121197,0.030125985661965737,0.00026451021933439144,0.029558900610283812,0.030935673987603506,0.14471452798191067,1.1056511056510354e-05,False,True,False
0,3.0549823164804315,0.007520129900747305,3.0413620309188056,3.0689187807373863,0.0010464377399474732,0.0009772532266479606,5.1044814309640146e-05,0.004004508023533082,0.0007607451684162315,0.003632485431450324,8.755967826658273e-08,0.028623644752938174,-0.15259433995669572,0.00844749748545179,-0.16383239484484907,-0.1385565343325173,0.19167420814479683,37.880774449805045,-95.93,70.25,34.316545454545455,0.014741588404597267,34.29,34.34,-2.306497865378105e-05,7.572105331783645e-07,-2.482816535915059e-05,-2.1517743311263846e-05,0.029793406934217895,0.00047691766284613344,0.028868159020259552,0.03093632866016767,-1.9790874191667523e-05,6.497234887439122e-07,-2.1303774194142445e-05,-1.8463270968256787e-05,-0.02876358140262242,0.0009442925197083844,-0.03096239394388635,-0.02683407475136817,0.029793422470257732,0.0004769165324069556,0.028868177557781215,0.03093634165307145,0.14932126696832582,1.0819827333712218e-06,False,True,False
0,3.006445507858804,0.03587616423663462,2.9356625555786993,3.04536903892404,0.09530445017675798,0.18835773447756987,6.516128584765862e-06,0.7997648271844103,0.1418806738121806,0.327993476010312,4.19315372146567e-08,1.501203954274061,-0.30358863638090133,0.22191355027576432,-1.0893905948431424,-0.16406034831195168,0.16916902204635412,46.0542185359157,-154.21,134.16,34.31900900900901,0.012717558009942983,34.29,34.34,-2.5748143130377035e-05,5.891940484995874e-06,-4.138027559858432e-05,-1.7103847247414853e-05,0.022251148473362268,0.01392479245048147,-0.01999631656276083,0.03850290882462649,-2.209315989454883e-05,5.055571680064422e-06,-3.550629032357074e-05,-1.4675933333742575e-05,-0.03210966816895645,0.007347646503535943,-0.05160398990647725,-0.02132964916134393,0.02285641617990236,0.012906122015190117,6.221442964723492e-05,0.03850292093202518,0.1492368569813454,-6.932256932257423e-05,False,True,False
0,2.888428328250723,0.16310625185788447,2.153748273333626,3.026195154661871,1.2332022680575634,0.4833052578535569,0.1642507241879289,1.942111262695988,0.8881599340133487,1.1714150718539964,1.0031655506281822e-08,8.160117529416581,-1.5792548562212725,0.5518475420598489,-2.2405011489445945,-0.5583376980176926,-2.498648190045248,70.63637686688958,-361.36,221.77,34.31454545454546,0.013453035102206884,34.29,34.34,-2.8646634832938506e-05,5.7487246991143304e-06,-4.965633071830118e-05,-7.172581103754615e-06,0.007140822332658754,0.01944339328717352,-0.048196472602512495,0.03783423750351042,-2.4580206836670433e-05,4.93268556587425e-06,-4.260754838828489e-05,-6.154423656085595e-06,-0.03572428248457757,0.007169046775472938,-0.0619247878877727,-0.00894469158378939,0.018026035083422664,0.010187746747422307,6.221442964723492e-05,0.048196485767568735,0.1085972850678733,-6.663210332936237e-05,False,True,False
0,2.88689695656041,0.04798339698231788,2.708650441040863,3.023750087889479,0.23683135253234175,0.166534658213591,0.003630663790653515,0.47501044044410623,0.17447319533001682,0.4029326320137091,3.2853799680765405e-08,2.239623085507797,-0.5846811569198866,0.18034840516310216,-0.8499447194599905,-0.3457348934993164,2.5043923120407,88.59346441392752,-438.46,630.13,34.31198198198198,0.01110444790652594,34.29,34.33,-2.8738952083518495e-05,3.3478215582032536e-06,-4.524243465445219e-05,-3.86215905586787e-06,0.005460283438905012,0.021649996325200257,-0.04132596572410476,0.04609154422915495,-2.4659419530485332e-05,2.8725938258647166e-06,-3.882021075377068e-05,-3.313920430199936e-06,-0.03583940831199681,0.0041749589000832565,-0.05642036229774846,-0.00481637239127121,0.02144664658521345,0.006171973207630169,4.8389000836738265e-05,0.04609154505478806,0.14471452798191067,5.229905229905474e-05,False,True,False
0,2.8389055883871235,0.02672964826102548,2.7970309973565,2.8886932373252066,0.010320793302795435,0.004487428744677033,0.0013123873251079832,0.020157913989902312,0.007044378680139486,0.018853118152396726,4.316756996303184e-08,0.08927326191495719,-0.4144252738276843,0.02943171096812175,-0.45156386549834837,-0.3590652249457761,-0.21508484162895833,44.02892498982497,-151.19,220.85,34.31436363636364,0.01468490285894411,34.29,34.33,-3.233278728671285e-05,1.4010520913127262e-06,-3.6966379534735316e-05,-2.0966006303282724e-05,0.012161324857000042,0.002611932691968481,0.008213864586113397,0.028872837404516752,-2.7743105036534824e-05,1.202170879555415e-06,-3.1718952689056526e-05,-1.7989853763942512e-05,-0.04032116279208366,0.0017472062941268618,-0.046099564316453005,-0.02614602155261514,0.012161402372632996,0.0026119198711545655,0.008213996367719936,0.028872850621231017,0.15384615384615385,0.00010242769875797642,False,True,False
0,2.7946556282840955,0.017736000664995675,2.7575886255236353,2.856042233860186,0.042264360477032956,0.032673404709701134,0.00017849585429092815,0.11424688920451921,0.03350455602087596,0.10530318603511343,3.7897737836800616e-08,0.7743990157508791,-0.4980485083440836,0.025222940519806364,-0.5321388111198756,-0.4518575472447182,-0.23807126696832648,77.88945426097457,-221.86,349.05,34.31972972972973,0.011867408345352857,34.29,34.34,-2.8034980683819162e-05,5.33776689500645e-06,-4.6345908670414436e-05,-1.2138214175584734e-05,0.020253491065678607,0.011661215205480645,-0.04202003398833134,0.040573083486359116,-2.4055377809263207e-05,4.580063769805526e-06,-3.976704516239923e-05,-1.0415178494914085e-05,-0.034961508576457696,0.006656554722957543,-0.05779646869525452,-0.01513717037256666,0.02113543522373377,0.009972025597600584,6.122689901791373e-05,0.042020067503006936,0.15384615384615385,0.0001619866619866497,False,True,False
0,2.768283167277363,0.012125073505830608,2.7460937137929915,2.800181303352334,0.009803927406819766,0.009200199600161673,0.00034003228669564464,0.032791818629341066,0.007794570585591156,0.03501195198655685,5.150955290078585e-08,0.3188088666966824,-0.4963587079476985,0.012123342550595337,-0.5147343431870712,-0.47725642733473894,0.4993103448275861,52.044549893520355,-277.47,217.15,34.32936363636364,0.009887186845598224,34.31,34.34,-2.6048352972955e-05,2.5232201203843712e-06,-3.9725064574640946e-05,-1.9310795279339348e-05,0.027314669558492,0.0049353635414783395,-0.0014195485370371952,0.03231444007949824,-2.2350754549837482e-05,2.1650456612161285e-06,-3.408603871062791e-05,-1.656960215099968e-05,-0.03248405005651324,0.00314662538469391,-0.04953983031021816,-0.02408186195635605,0.027323109906807433,0.004888488477095285,5.826430712995015e-05,0.03231445067823651,0.11305822498586772,9.318576291054836e-05,False,True,False
0,2.76222432919638,0.02273809805374821,2.7125332592337803,2.8181013359908125,0.08541361813898339,0.055165458669153594,0.01414427971973542,0.27618448557682235,0.08537982667340832,0.1880452123985439,5.183996631963339e-08,0.9927076910273618,-0.5790474210446169,0.06136407910941955,-0.7383490256414715,-0.5158502409085407,1.211578054298642,110.66997854094443,-371.59,381.32,34.35567567567568,0.01708915773346481,34.33,34.39,-2.472955173102727e-05,6.02900619925278e-06,-4.303548662252769e-05,-6.620844095773492e-06,0.025294916217477797,0.010310252314204972,-0.01518328587453048,0.043339331434142835,-2.1219158901968624e-05,5.173180733494211e-06,-3.6926541936513574e-05,-5.681006451771319e-06,-0.030839416109720085,0.007518576678183679,-0.05366814950273634,-0.00825663838503636,0.025829387533798372,0.008885212993126028,6.418949090587729e-05,0.043339332312206796,0.14932126696832582,0.00025438750438748785,False,True,False
0,2.7336704978752913,0.042203758238670425,2.6313439494807898,2.8068990935065625,0.12459755584392064,0.0749527779644642,0.005740380620709733,0.2778248658246917,0.07496604393974528,0.2175981976426472,3.508995938261705e-08,1.6008489758259574,-0.6517776869855738,0.08755331170312056,-0.7619364797725069,-0.5195447983249051,-1.8379706048615017,90.38240343750219,-411.51,279.85,34.37,0.014077113966103743,34.33,34.39,-2.7189101007991854e-05,5.6294520477555325e-06,-5.020806772628231e-05,-5.517370079811242e-06,0.016018529571583607,0.018644421070992564,-0.04065595772177236,0.04953314690413644,-2.3329571880852237e-05,4.830343826348658e-06,-4.308096559259917e-05,-4.7341720431427655e-06,-0.0339066396655561,0.0070203057483095325,-0.06261284108652573,-0.006880531987530299,0.02282765314858963,0.009099895643000361,7.900245034569512e-05,0.04953314743765551,0.07687959299039004,-3.8951378400923206e-05,False,True,False
0,2.70963628522984,0.025057539121397902,2.644009191158139,2.754933067759193,0.04499537196472744,0.036090637003570535,0.0006876326065447787,0.10996968461814968,0.037812628582628155,0.11539291174336642,2.322698855472538e-08,0.5937513916487592,-0.6007031921685201,0.040180554803447205,-0.6673392846327989,-0.5195051227649349,-0.34327488687782687,74.57176519660683,-357.52,318.39,34.37198198198198,0.017674831608805546,34.34,34.41,-2.6477759151112257e-05,3.8572423503162616e-06,-4.4138960638489935e-05,-1.1586477167603609e-05,0.0245199062079696,0.010599730804887379,-0.031005836083417483,0.0412598000038958,-2.271920594867031e-05,3.3097016575546213e-06,-3.7873376345142124e-05,-9.941761290599808e-06,-0.033019548473642295,0.004810240928394559,-0.055044255900242395,-0.01444911717381363,0.026257024981631107,0.004904088508152028,5.826430712995015e-05,0.04125980785001318,0.15384615384615385,-1.5795015794999806e-05,False,True,False
0,2.656543571142594,0.02828804780430775,2.6141525706763593,2.745705642902224,0.06886751178515511,0.057697739168458675,0.0027033553683908137,0.18506196107096182,0.051817426792194976,0.15193417892016226,7.576857960489569e-08,1.118257416160291,-0.6855894777395783,0.035459488602152554,-0.7468057765444153,-0.6434064822929049,-0.9255712669683256,56.78398619392517,-208.61,252.78,34.37345454545454,0.014927123495386843,34.34,34.39,-3.138222680803044e-05,5.342131844401923e-06,-4.4690697646471064e-05,-7.72431811173574e-06,0.008539300244501051,0.011242460741960622,-0.007610022303989951,0.051589286413097485,-2.692747788475808e-05,4.58380910881648e-06,-3.8346793549456406e-05,-6.627840860399872e-06,-0.039135749871607575,0.006661998108756403,-0.05573230909899543,-0.00963274478254242,0.008629653391043381,0.011173256425662404,6.023936838859253e-05,0.05158928889241245,0.14932126696832582,3.345129950633215e-05,False,True,False
0,2.584782355351664,0.06520725942972225,2.4782854042680875,2.6496765617684295,0.03268554020011376,0.03242662943806987,0.0010837845532542453,0.11998606040206768,0.023442797903233947,0.056971875784807065,3.4002262117027726e-08,0.43135942102031377,-0.7334642872231502,0.0767988665990401,-0.8257104317879916,-0.637057321888572,1.1261842849067272,49.934780424159335,-248.23,146.23,34.391621621621624,0.014048004746099416,34.37,34.43,-2.846376272508956e-05,2.244274528707092e-06,-4.800111969435781e-05,-1.6000373231452603e-05,0.0012707981231597058,0.023808512078458945,-0.03649488983945378,0.025423214642237204,-2.4423293668272154e-05,1.925696768070706e-06,-4.1187296775342064e-05,-1.372909892511402e-05,-0.03549622865286418,0.002798761449784229,-0.05986062829151361,-0.01995354276383787,0.023423663486072603,0.004378817421036856,5.628924587130778e-05,0.0364949026130246,0.14471452798191067,0.00010459810459811372,False,True,False
0,2.42917427198159,0.02897237285601111,2.3857120314698665,2.4852929409771494,0.01383997478675329,0.019708046349650583,0.00012214815153369825,0.06908900089412244,0.014533983839101327,0.040499668379317684,6.530699477036439e-08,0.2678191689659335,-0.8967835226397652,0.04872685209397247,-1.0024541997007772,-0.8262210675264464,0.4677432126696833,38.45475491690162,-88.64,54.72,34.387454545454545,0.0138429171526843,34.37,34.41,-2.7187402791468066e-05,3.1763416032840735e-07,-2.7586850399056214e-05,-2.6483376383093966e-05,-0.028256346105062856,0.00050314689755035,-0.028930983037427655,-0.027554876639921594,-2.3328114728427473e-05,2.725455679103776e-07,-2.367086021571383e-05,-2.2724025807085277e-05,-0.033904521875205866,0.00039611118501347756,-0.0344026599376515,-0.03302655354014544,0.02825636883099578,0.0005031461281291403,0.02755489966702864,0.028931004969247873,0.14027149321266968,-0.0002452494195613535,False,True,False
0,2.5141383057991193,0.07377131117694832,2.374175973625115,2.5745207945856627,0.03702325717306531,0.036794224012013876,0.001338901914994492,0.13367845958128732,0.024043076188621317,0.11868490422204772,3.704453088726467e-08,1.1304183021149412,-0.8203658149758206,0.09689920317541027,-1.0045719936759885,-0.7367116318005271,-0.17545505935556863,48.68120132997044,-226.97,192.84,34.3736036036036,0.012989001836714375,34.34,34.39,-2.529012820990089e-05,2.877733727511291e-06,-6.069107087792367e-05,2.206948031924497e-06,0.015795366111531754,0.022190892177216683,-0.029619036236180684,0.04400065100856901,-2.1700160802500505e-05,2.469235589297114e-06,-5.207589247457043e-05,1.8936688172571063e-06,-0.031538492723859224,0.0035887277230483767,-0.0756858518628333,0.00275221279501212,0.027070186184648907,0.0029306503100942883,0.0027183802933565377,0.04400066724884395,0.1582815149802148,-2.772902772905114e-05,False,True,False
0,2.429390045968433,0.1729383034801843,1.9743346601416836,2.631258970683757,0.581956831402063,0.36854499463316326,0.0030093018879249365,1.2631024761224265,0.45438954527490777,1.1650856919286292,1.5993908419886793e-08,9.319247813416982,-1.4647668925974455,0.4606952383644913,-2.1270293122193666,-0.7477562008144238,-0.8769739819004536,66.08875676246244,-337.42,218.44,34.37272727272727,0.012555132793651365,34.34,34.39,-2.890689991475766e-05,1.0202878755743085e-05,-7.007060001360278e-05,1.7655584255395975e-05,0.014179820558324811,0.0094971111678698,-0.02963975479503399,0.05986463833516264,-2.480352694323045e-05,8.754566517435178e-06,-6.012398494791312e-05,1.514935053805685e-05,-0.03604885056588981,0.012723676793162537,-0.0873827562416348,0.02201770236009696,0.015072116414171253,0.008004112175482818,5.431418461266541e-05,0.05986463849408244,0.07692307692307693,7.303383450162819e-06,False,True,False
0,2.502347258493862,0.012798042627526804,2.481802546784553,2.518984992115513,0.013683801314901566,0.020438101155777804,7.40006039986669e-05,0.11300625665204275,0.0037903743104361494,0.020883705447259964,6.874443427007382e-08,0.2022553372318246,-0.8108713276891245,0.02805239517254531,-0.921807911332729,-0.784897177504893,1.046936122102883,24.630834618900597,-69.59,90.34,34.38603603603603,0.01625251193336369,34.34,34.41,-2.9417443888206258e-05,2.0179367788612915e-06,-3.8069853550697574e-05,-1.7103847247414853e-05,0.022237363617230506,0.003900788069402756,0.01302689527434375,0.035069994577551215,-2.5241598519168323e-05,1.7314879634903011e-06,-3.2665787097685084e-05,-1.4675933333742575e-05,-0.03668553327695312,0.0025165030358529033,-0.04747567071395907,-0.02132964916134393,0.022237400048930493,0.0039007738632477534,0.013026991857528567,0.03507000181913428,0.1628038439796495,0.0003023868023868052,False,True,False
0,2.499872189591234,0.006312424285619496,2.479109641511183,2.511060715253135,0.0011798388636632192,0.0015805346520713257,2.436287232137616e-06,0.006227273012766247,0.0013189141755119787,0.005916666817163618,6.52056102402529e-08,0.04675780441424723,-0.8014893007621936,0.0073989406673608,-0.8181580734464304,-0.7890433587133617,1.2240723981900454,24.324725451602344,-56.44,123.07,34.40090909090909,0.012601547490921095,34.37,34.43,-2.8651627928033362e-05,1.5507584414482498e-06,-4.579417166243331e-05,-1.6552110239433728e-05,0.02392573396657756,0.0016218156537883763,0.006170423548707616,0.030250948823847323,-2.4584491155261516e-05,1.3306262137527517e-06,-3.929362795808496e-05,-1.4202516129428297e-05,-0.03573050921035814,0.0019339001928401283,-0.05710841549650149,-0.020641595962590898,0.02392576404319196,0.0016218126514753806,0.006170470188556543,0.03025095952530365,0.14932126696832582,7.14108604016811e-05,False,True,False
0,2.4615097174249536,0.017958606379954174,2.426524019668109,2.4974808599265566,0.012972610546594708,0.012101709377474857,0.00023665352093734892,0.03916709672544663,0.010707016905305672,0.03471719857251289,3.741658155531624e-08,0.23671217529708266,-0.8581897512857201,0.027170100248723777,-0.8936771397492227,-0.8186388652847447,-1.5784898190045247,38.916435155629394,-223.56,132.22,34.42081081081081,0.011372625437279195,34.41,34.45,-2.9067927231566628e-05,2.5656973172332834e-07,-2.9242061422999583e-05,-2.869032441501846e-05,0.021598769267190166,0.0005382810414813453,0.02060617391035782,0.02404643990412297,-2.494169621779276e-05,2.201493163356512e-07,-2.5091111828656657e-05,-2.461769462434238e-05,-0.0362496624723132,0.00031995973092579426,-0.03646681953391059,-0.03577876633515756,0.021598803259634487,0.0005382798843523397,0.0206062099350162,0.02404647077482778,0.14027149321266968,1.7901017901020696e-05,False,True,False
0,2.414956034755579,0.016663855197663745,2.3960697600903114,2.445283025226256,0.005866103550455443,0.004289520831685062,0.00024528964925867253,0.01864172243266897,0.003385534294507106,0.01101307509639345,4.1885613380476805e-08,0.06924071126403525,-0.9052702502994344,0.01877585125981623,-0.9244524155010988,-0.8754173627664433,0.40071791972866005,40.08505566496113,-107.9,72.65,34.41504504504504,0.012783076445326284,34.39,34.43,-2.86909478466659e-05,4.148985401199446e-08,-2.9242061422999583e-05,-2.813858740703734e-05,0.022068468629853105,0.00022712869162479346,0.02198228030786388,0.02267167018783325,-2.461822955903652e-05,3.560031393514552e-08,-2.5091111828656657e-05,-2.4144277420028106e-05,-0.035779543796399096,5.1740641566182093e-05,-0.03646681953391059,-0.03509071313640453,0.022068501014919518,0.0002271283654645391,0.02198231407735658,0.022671700505963822,0.14471452798191067,-8.0730080730127e-06,False,True,False
0,2.394254150773059,0.014265540278009275,2.3666762692287593,2.4262456226255398,0.015067585022727809,0.018575890505341912,1.2424775519363502e-06,0.06275642568715487,0.013082384074251108,0.06880992624217369,5.0109031368705814e-08,0.6077583535086859,-0.9386820797402811,0.014801714128827104,-0.9664030717962725,-0.9189472089470965,0.22695135746606418,47.50243068077331,-214.62,112.02,34.42454545454545,0.016898855269649887,34.39,34.45,-2.8592334923781996e-05,1.246248869702286e-06,-3.2000746462905206e-05,-1.9310795279339348e-05,0.021518397935598663,0.0016595534323700905,0.015787128156653923,0.030245602098981954,-2.4533614871992447e-05,1.0693421815824034e-06,-2.745819785022804e-05,-1.656960215099968e-05,-0.035656566841713866,0.001554156253499569,-0.03990708552767574,-0.02408186195635605,0.021518431329865296,0.0016595488868746031,0.015787182543227824,0.03024561825448305,0.14932126696832582,0.00010964091698038315,False,True,False
0,2.3556170591575674,0.008995365480806101,2.3380938084850182,2.3732614550674245,0.002700200073534187,0.004344056591257653,8.123085118328112e-07,0.016738184074113177,0.0015082885060843868,0.007975111483229744,9.261247101998468e-08,0.07161291170744324,-0.9716294167283687,0.009078060166478375,-0.9942040110533831,-0.9625814788205227,-0.17928773318258867,31.352042951456063,-87.15,46.53,34.424234234234234,0.01692494391286887,34.39,34.47,-2.974823643824018e-05,1.6076832956209371e-07,-3.0345535438961837e-05,-2.9242061422999583e-05,0.019242686155550377,0.00019470623402584574,0.018541345973490556,0.02060617391035782,-2.5525434625827336e-05,1.3794705090031988e-07,-2.6037946237285214e-05,-2.5091111828656657e-05,-0.037098053859915915,0.00020048893188829545,-0.03784292593141665,-0.03646681953391059,0.019242726086201725,0.00019470572661264732,0.01854138753503211,0.0206062099350162,0.14471452798191067,-0.00023025623025624864,False,True,False
0,2.351699939981184,0.01995665127386775,2.3121084694619896,2.4018875155811212,0.04024379533092019,0.01545858800189677,0.013891300620372657,0.07386575551122371,0.03143006064868324,0.08745803999095936,3.813507354344381e-08,0.5605879816002229,-1.0137067402099322,0.013099767780398565,-1.0439063272487799,-0.9946039467664191,-0.503167420814479,103.14542096872353,-399.02,330.17,34.42709090909091,0.01598998852754332,34.39,34.45,-2.834892153790797e-05,4.887310099350229e-06,-4.138027559858432e-05,-1.4896899215490354e-05,0.014768143704888433,0.014640631673686828,-0.0323712490311928,0.03851293393374905,-2.4324754340677328e-05,4.193549916685072e-06,-3.550629032357074e-05,-1.2782264516485466e-05,-0.03535301395991106,0.006094804768417778,-0.05160398990647725,-0.018577436366331808,0.018842161368515745,0.008790078794238328,4.740147020741708e-05,0.03851293893601489,0.07239819004524888,7.213218222392226e-05,False,True,False
0,3.1028836012897485,0.04808514420850456,3.0209886527765044,3.21395025827842,0.21696865557968734,0.12067650711179818,0.06246619657436804,0.46145503016033385,0.16895630787802254,0.40180765307192845,4.142302456600078e-08,2.2518076136055907,-0.31295773269884997,0.13136366095294566,-0.5229200295723607,-0.15534360901577726,0.7438665912945167,60.178296794306505,-351.29,216.08,33.788288288288285,0.029072757441034682,33.73,33.84,-2.3310109297643204e-05,1.137073606426145e-05,-7.06223370215839e-05,1.8759058271358226e-05,-0.02157712967816639,0.023958882577986704,-0.08811291489870263,0.07493697966873668,-2.0001208213910513e-05,9.75664492442809e-06,-6.05974021522274e-05,1.6096184946685404e-05,-0.029069275820763605,0.014180073491570445,-0.08807080944038784,0.02339380875760302,0.02757338365421739,0.016702600691634165,2.468826573302973e-05,0.08811292680255065,0.07235726399095534,-0.0008658301158301162,False,False,True
0,3.1225446908098724,0.07804567643177449,2.992786902767476,3.3570397555493248,0.16530618190782714,0.0762021777105301,0.05799140398118924,0.31694147107252746,0.13613001523400717,0.324104364209303,4.0175770266159816e-08,2.1701375865969013,-0.2375003521712739,0.05269879655294121,-0.318606762490804,-0.164728479292145,-0.4646662895927604,43.20216064548924,-299.47,177.61,33.68490909090909,0.021577488037111677,33.65,33.73,-2.4202780198520403e-05,1.067390182512082e-05,-6.676017796571603e-05,8.276055119716864e-06,-0.022813685745702618,0.01941395036471843,-0.07567649509431891,0.048138995310209765,-2.0767163290609752e-05,9.158727234310574e-06,-5.728348172202747e-05,7.101258064714148e-06,-0.030182496539869905,0.013311074275810483,-0.08325443704911663,0.010320797981295449,0.02630116269996228,0.014332543382523145,4.8389000836738265e-05,0.07567649577876766,0.1085972850678733,-0.0004674165408110565,False,False,True
0,3.0202091370063946,0.07975785009276827,2.8548968498669183,3.1674033280379734,0.4022287104473991,0.12501463274275004,0.20396854478049137,0.667815222270284,0.3162995768746903,0.5980898423158956,2.9020419844982825e-08,3.2235299587115076,-0.5943615900087514,0.12868911048625498,-0.7336209979739013,-0.30079170559049107,0.4083776144714528,28.19660714406101,-95.29,103.25,33.60693693693693,0.03844223039581628,33.53,33.66,-1.6443510421120702e-05,8.551056883873004e-06,-5.738064883003692e-05,2.758685039905621e-06,-0.03756007005737587,0.010902711129948653,-0.08396521382854749,0.015819876846454316,-1.410933220007232e-05,7.337222961911598e-06,-4.923538924868476e-05,2.3670860215713828e-06,-0.020506164676863493,0.01066374369773873,-0.07155753267031512,0.0034402659937651497,0.03759587058525923,0.010778498849398015,0.002093131701317798,0.08396521746689602,0.14471452798191067,-0.0011010881010880802,False,False,True
0,3.06305166909445,0.07026133761195297,2.8065179629158075,3.1674097973540816,0.3343582124376579,0.16455829790445542,0.14973357633539813,0.7533793369785057,0.2903589662592815,0.6077990190840252,2.1543779205046576e-08,3.6537398917689856,-0.4763714033760067,0.17877907540921392,-0.8860323847600965,-0.2652093572670089,-0.26188914027149307,27.208275523886876,-97.04,84.28,33.527454545454546,0.027906671578652606,33.47,33.57,-1.8530624170768755e-05,8.161910193076754e-06,-6.013933386994254e-05,6.620844095773492e-06,-0.03396043739579749,0.012775843102314083,-0.08810556315201273,0.08249353472407292,-1.590017737114352e-05,7.003316162548928e-06,-5.1602475270256146e-05,5.681006451771319e-06,-0.023108936053141925,0.010178451572118483,-0.07499779866408027,0.00825663838503636,0.034182632258388364,0.01216818360496065,0.0006709426565520031,0.08810557126254223,0.0904977375565611,-0.0007938146653742622,False,False,True
0,3.080386546967989,0.09470660295969897,2.7806738473101023,3.2290270212124943,0.5903038334030419,0.1240623731021798,0.31421684033475605,0.9221640817854518,0.4404152211023372,0.8926049073539374,2.562493683910816e-08,6.301924379118381,-0.7121751437305252,0.12756741570652902,-0.9450844679139367,-0.5759236712178125,-0.037207461842848906,48.511276106746685,-287.04,152.71,33.46711711711712,0.017652575778436097,33.43,33.49,-2.3994013814880823e-05,1.1002724259594539e-05,-6.344975591782929e-05,1.2138214175584734e-05,-0.02466758909228131,0.01752840191563732,-0.08807749284646954,0.0873573592985243,-2.0588031573382557e-05,9.440872885939019e-06,-5.4442978496141804e-05,1.0415178494914085e-05,-0.02992215080272075,0.013721137992016989,-0.07912611785659844,0.01513717037256666,0.025849640731589626,0.015731006342421156,2.468826573302973e-05,0.08807749314651077,0.09044657998869417,-0.00041418041418042167,False,False,True
0,3.074683207290557,0.07697164845083983,2.8896327913317776,3.2411275918979396,0.5233015071690363,0.1129700216040196,0.30489995886452476,0.7699151647197904,0.4056767931802604,0.8597330946541606,2.6746057812943036e-08,4.705694296869941,-0.6522024840681248,0.060084132364175036,-0.8319721107749469,-0.5880415524322594,0.2021210407239819,36.48016541300665,-134.66,113.5,33.42018181818182,0.02196668946849348,33.37,33.47,-2.0789999701189195e-05,9.37197358300446e-06,-7.06223370215839e-05,4.965633071830118e-06,-0.033212075468427464,0.013478822588540083,-0.08807816118707772,0.04537007399999335,-1.7838831533606963e-05,8.041609441440652e-06,-6.05974021522274e-05,4.260754838828489e-06,-0.025926529468850032,0.0116874820958824,-0.08807080944038784,0.00619247878877727,0.033516285742760187,0.012702642241466501,0.0006360491515576933,0.08807816155012485,0.11764705882352942,-0.0005207943556567688,False,False,True
0,3.0627954662944314,0.08635239988973235,2.8476531926714608,3.2108108603918186,0.8361508873177304,0.22601842313942583,0.3613332850153004,1.1305777215959105,0.6277509660599192,1.0973867905273682,5.0683254926298105e-08,5.0650658176522505,-0.9780295634878147,0.18634197305790806,-1.190267476600604,-0.5590448538351234,0.04009615384615384,27.549563798161323,-102.41,78.56,33.36504504504504,0.016888612294240223,33.34,33.41,-2.3661653517615836e-05,7.87279688421779e-06,-5.68289118220558e-05,2.758685039905621e-06,-0.031212104995065357,0.013535260492679566,-0.08809553804289018,0.05500348712314394,-2.0302850263301518e-05,6.7552428732278266e-06,-4.8761972044370495e-05,2.3670860215713828e-06,-0.02950767513340059,0.009817907809266002,-0.0708694794715621,0.0034402659937651497,0.031712729241933205,0.012315315013767055,9.87530629321189e-06,0.08809554214961306,0.0995475113122172,-0.00037829062829058735,False,False,True
0,3.0851407375292927,0.1055199842265054,2.8763804638851105,3.265818459198711,0.6580668616056135,0.2581779149868826,0.29190380764589935,1.0330997502715025,0.5158272514967637,1.0395660014677797,2.5449081064721213e-08,5.887510605659568,-0.774819958705211,0.1737012607806098,-0.9632735303814192,-0.5222502474517233,-0.4922159412097232,28.879587552690637,-114.58,104.38,33.32718181818182,0.01515254653147932,33.29,33.37,-2.4771993039333507e-05,8.30702767553256e-06,-6.455322993379153e-05,0.0,-0.02731785467626787,0.014409038036587052,-0.08814299022607033,0.058455783247856184,-2.1255575609992805e-05,7.127834024949964e-06,-5.538981290477036e-05,0.0,-0.030892343278854935,0.010359422843855466,-0.08050222425410451,0.0,0.028302812779432664,0.01236023840508582,3.2588510767599236e-05,0.08814302519686631,0.07687959299039004,-0.00025908978202557337,False,False,True
0,3.0475936775563546,0.17189426904104982,2.5463839437136158,3.342797691471026,1.3516459244025685,0.31085304568792727,0.7157586067829627,1.8347333816475686,1.1009791884991176,1.8444933825814036,2.4551109589765474e-08,8.400453815958638,-1.5111802302918427,0.31921813589013087,-1.9220980897281394,-0.9508824475661347,0.45768665158371097,40.47710256494932,-272.35,248.26,33.277207207207205,0.021539442517103217,33.25,33.31,-2.4396886770332767e-05,8.449115762809882e-06,-5.9035859853980294e-05,2.6483376383093966e-05,-0.029099800550067563,0.013906601315159684,-0.08812828673269056,0.06393614857598626,-2.093371617583796e-05,7.249752518855842e-06,-5.0655640861627595e-05,2.2724025807085277e-05,-0.030424560504589578,0.010536616255828309,-0.07362169226657421,0.03302655354014544,0.030305335014787913,0.011031712299501797,0.0006220013780263501,0.0881283089109466,0.10407239819004525,-0.0005221130221130459,False,False,True
0,2.9895364668304327,0.1700238393126371,2.7363616607436474,3.2883220124203665,0.7397600266465743,0.23228802645985483,0.2947807159930056,1.1858281795618937,0.48498093691547295,1.0831849035320067,4.029265454619235e-08,7.839437504858825,-0.9680014598940584,0.10845540995732862,-1.1604141240166226,-0.7712658274504671,0.09171848501978509,27.45143523120938,-102.71,124.83,33.21509090909091,0.023215996325906003,33.18,33.25,-1.91605482523072e-05,9.795935721537231e-06,-6.786365198167829e-05,1.1034740159622484e-05,-0.0341436514281647,0.0112054160880527,-0.07913280126268014,0.01373098864769289,-1.6440682889711835e-05,8.405389589329796e-06,-5.823031613065602e-05,9.468344086285531e-06,-0.023894493797147597,0.012216191429039238,-0.08463054344662269,0.013761063975060599,0.03423194267903138,0.010932445224225299,0.0007202761443172086,0.07913280159663622,0.03165630299604296,-0.0005611883777021211,False,False,True
0,2.8224792985170755,0.19641083720867036,2.666320509982003,3.280365089957629,0.3268171468120888,0.3702644564378258,0.005507593707213217,1.1060764966144518,0.30293228284334034,0.8985919694142818,1.5787868790084758e-08,6.586558066182936,-0.7497965639337634,0.1531932560356393,-1.097238214218627,-0.5967537447704611,-0.0941798642533938,20.41006358479217,-110.97,84.57,33.16369369369369,0.024713924228621505,33.13,33.23,-2.144409515861478e-05,6.470802131067679e-06,-6.124280788590479e-05,1.1034740159622484e-05,-0.03430721485576244,0.006267240156604011,-0.08257106223462078,0.013039593745899003,-1.8400077269038363e-05,5.5522631439392714e-06,-5.2549309678884696e-05,9.468344086285531e-06,-0.026742230546104757,0.008069525952356197,-0.07637390506158633,0.013761063975060599,0.03435683954822467,0.005988979853503136,0.004827750001361506,0.08257106239144534,0.1085972850678733,-0.0005563355563355495,False,False,True
0,3.031025497854151,0.11304870488404564,2.739709010842931,3.2171782425238167,0.933715127128408,0.29448892655073483,0.22545575793867567,1.34927305367765,0.6616509226395643,1.2284161340850903,1.542729322068226e-08,6.602450768406364,-1.1133759796408897,0.2136500424654716,-1.302713362742336,-0.5418392409116554,0.07652149321266989,21.240720959651668,-94.79,74.32,33.12836363636364,0.015827468442480692,33.09,33.15,-2.0595268992489973e-05,5.782401222127237e-06,-5.075980473426343e-05,1.655211023943373e-06,-0.034797319635384676,0.009125222109996813,-0.08328250735465982,0.02817943748089835,-1.767174310855486e-05,4.9615816615596435e-06,-4.355438279691344e-05,1.4202516129428298e-06,-0.025683687163407784,0.007211043667192594,-0.06330089428527876,0.00206415959625909,0.034990002937670815,0.008355141742130515,0.002773697259554687,0.08328251295211529,0.07239819004524888,-0.00037283321686989063,False,False,True
0,2.944881756178301,0.0995808927721659,2.8485807365881297,3.2574831207481245,0.11351101850001372,0.0910514012921653,0.005639028833998443,0.34739505849448316,0.09007568728237245,0.27567748796057234,2.0164367064978705e-08,2.036587828473624,-0.39349331511004304,0.04369626313273244,-0.5274641240257731,-0.29519738142180973,-0.07312040700960996,5.853078954189677,-31.03,64.63,33.06333333333333,0.017752507291973696,33.03,33.09,-1.9943670082611816e-05,8.921803746721507e-07,-2.427642835116947e-05,-7.172581103754615e-06,-0.03625747586441692,0.0011030292911452149,-0.04337675850820043,-0.018586124794238032,-1.7112639532418998e-05,7.655341813427955e-07,-2.083035698982817e-05,-6.154423656085595e-06,-0.02487109944904335,0.0011126089999002773,-0.03027434074513332,-0.00894469158378939,0.03625748540953526,0.0011030292044611222,0.01858612719718231,0.043376770303095225,0.06331260599208592,-0.00048262548262553533,False,False,True
0,3.0901630100943978,0.05420507767700867,3.01459869261707,3.315283616570265,0.1073281239822129,0.0717204197241836,0.00959341419492662,0.29824355948205467,0.0689221602095067,0.28801975407384633,4.15069467685214e-08,2.9007881624673244,-0.21807644632651835,0.04452127728947429,-0.29194472555588136,-0.1505799566800596,0.3787726244343894,37.35718390441151,-284.04,130.04,33.00127272727273,0.0183797400880631,32.97,33.05,-2.0884244371104524e-05,5.409007375656601e-06,-7.06223370215839e-05,1.1034740159622485e-06,-0.031482716545127236,0.015534952492567483,-0.05375369710058226,0.05504559258145874,-1.7919698047013583e-05,4.641191569274352e-06,-6.05974021522274e-05,9.468344086285532e-07,-0.026044058917958298,0.006745396399123874,-0.08807080944038784,0.00137610639750606,0.03446478037951413,0.006667322904772735,2.2713204474387347e-05,0.05504559260066237,0.03619909502262444,-0.0004526294434551271,False,False,True
0,3.0860963167018287,0.0662320319075205,2.8954491983259185,3.2075962069488373,0.1453387050619753,0.1283945110784384,0.010921434175318547,0.39342479014916465,0.11103083591526301,0.33174962843542116,3.2127900118084085e-08,2.293137763623541,-0.2603004418211614,0.10405406072999565,-0.41346023287578504,-0.058746496744083346,-0.41969474279253804,11.369254593854757,-91.0,59.27,32.964954954954955,0.015601507728647013,32.93,32.99,-1.9849440222724314e-05,3.150225783403196e-06,-2.869032441501846e-05,-1.1586477167603609e-05,-0.03652351730901928,0.0037850441785630927,-0.06333096961264646,-0.013102417763067108,-1.703178572673701e-05,2.703047034663506e-06,-2.461769462434238e-05,-9.941761290599808e-06,-0.024753588469036976,0.003928543664301368,-0.03577876633515756,-0.01444911717381363,0.03652352724782651,0.003785040911027061,0.013102456811097767,0.06333097806260803,0.18089315997738833,-0.00032449982449981994,False,False,True
0,3.2821846017226957,0.09977499585799271,3.12840827142808,3.521655537403169,0.12501666166150227,0.0761326739550533,0.005307754023249503,0.3365242381001047,0.10771889875584348,0.23151969066815098,3.2198942179206824e-08,1.1804510595963231,-0.011174435607022188,0.0699803963790036,-0.10407197912353362,0.07539351363606278,0.035729638009049526,12.168704162071739,-83.36,86.03,32.89272727272727,0.020359570069409316,32.87,32.93,-2.6374152427894083e-05,5.330707029072028e-06,-4.579417166243331e-05,-1.6000373231452603e-05,-0.029355934764818892,0.0058786051888861995,-0.043397477067053734,-0.00966883517538367,-2.2630306337905413e-05,4.5740060612502555e-06,-3.929362795808496e-05,-1.372909892511402e-05,-0.03289034391369546,0.0066477505947793,-0.05710841549650149,-0.01995354276383787,0.029355958125668682,0.0058785954348124425,0.009668914875222876,0.04339751132045841,0.14479638009049775,-0.0004345062326713663,False,False,True
0,3.444223959820987,0.06000552883671228,3.3595114791544827,3.631371662150162,0.17418572894363143,0.07018026150790051,0.058654737179059,0.34417689334798407,0.13057641554262955,0.2888692105834688,2.842922608436993e-08,1.7854571792109168,0.1292165844694785,0.04739927340259981,0.06312525645907316,0.1902721768952535,0.03297908422837747,11.06638991992675,-53.64,35.97,32.83972972972973,0.017239461047230648,32.81,32.87,-2.875773119879896e-05,1.789885235720274e-06,-3.475943150281083e-05,-1.434516220750923e-05,-0.026898487062923283,0.0032856257772451596,-0.049579262406100263,0.002730825895550638,-2.4675532925321955e-05,1.53580864085717e-06,-2.9825283871799426e-05,-1.230884731217119e-05,-0.03586282713319526,0.0022321074062885563,-0.04334735152144089,-0.01788938316757878,0.0269047075253634,0.003234458230937465,4.048875580216875e-05,0.04957928096062151,0.10853589598643301,-0.0003889083889083839,False,False,True
0,3.58820111961998,0.1374843433940031,3.4304691973307953,4.030156455054783,0.25632107544918636,0.16036529558569257,0.0900437288833098,0.77985782634532,0.1985687271629681,0.4653103413563069,3.687271643570966e-08,2.5278079738518455,0.21520729133909566,0.02031641404815412,0.19057939575024918,0.28848963279200457,0.03799208144796394,7.11823335976401,-55.41,21.53,32.80490909090909,0.017120482638391842,32.77,32.84,-2.9262657940265846e-05,1.188571882749568e-06,-4.08285385906032e-05,-1.7655584255395975e-05,-0.02622505563467881,0.002226466486514983,-0.0420140189228578,0.0020427726967976083,-2.5108784642844863e-05,1.0198525198025269e-06,-3.5032873119256466e-05,-1.514935053805685e-05,-0.036492504777755445,0.0014822291672371012,-0.05091593670772422,-0.02201770236009696,0.02622972084922689,0.0021710951112406613,4.048875580216875e-05,0.042014044686749234,0.0497737556561086,-0.0004172846741654083,False,False,True
0,3.6963391247417614,0.12500511756759264,3.5338364728114136,3.9617301871216632,0.1948559852226908,0.1283649151811187,0.04504947954629283,0.5739512383949458,0.1447597482266769,0.372503776903864,2.2854887316015038e-08,3.1373536982666916,0.4031398722240245,0.09213137908845186,0.29327668882030267,0.6194816486379108,-0.022256787330316673,12.14023803119665,-46.83,55.39,32.76099099099099,0.021017523206513056,32.73,32.79,-3.090538622647209e-05,2.3914393149605017e-06,-4.248374961454656e-05,-2.04142692953016e-05,-0.023080213994319313,0.003979627314683106,-0.04132663406471293,-0.011038258166808017,-2.6518325459309994e-05,2.051971316766524e-06,-3.64531247321993e-05,-1.7516436559628233e-05,-0.0385410975595631,0.0029822858472067933,-0.05298009630398331,-0.02545796835386211,0.02308025127737695,0.003979620683381413,0.011038304516810982,0.041326661082041784,0.09502262443438915,-0.0004777114777115068,False,False,True
0,4.017289220651302,0.25980200115210916,3.748888577799974,4.748146448076318,0.33906851700697216,0.3159436358423103,0.0163741348727769,1.1973466175862595,0.27099329789881327,0.7585366188470036,2.7054230855583228e-08,6.054874484087172,0.6339876028727663,0.01648585688029673,0.6131937338710993,0.6605199167072138,-0.047405313736574306,6.038636461263965,-38.38,18.34,32.73432432432432,0.014623867267501795,32.71,32.77,-3.260796888750816e-05,2.2883064564832762e-06,-4.4138960638489935e-05,-2.0966006303282724e-05,-0.01897845515117921,0.003671114986070456,-0.03376205892207863,-0.0048464477186389195,-2.7979224242320816e-05,1.963478305011006e-06,-3.7873376345142124e-05,-1.7989853763942512e-05,-0.040664332776924834,0.0028536722284983915,-0.055044255900242395,-0.02614602155261514,0.018978505980642577,0.0036711048776994133,0.0048465581372857175,0.033762098379926365,0.08140192198982475,-0.00030256230256232045,False,False,True
0,4.259363589659129,0.21484265397259106,3.9201973444742753,4.779203829719429,0.46754189076280284,0.24127400487283807,0.2035217708379557,1.080925152149307,0.3869506468929665,0.6898508017733015,2.668186738219447e-08,3.5213625474856904,0.7882846717629047,0.1341607350409528,0.6292913401884348,0.9728717489049862,0.023552036199095048,5.919867630577665,-22.5,18.95,32.68636363636364,0.02725103390774214,32.65,32.73,-3.0071539345631843e-05,1.1549164229571426e-06,-3.586290551877307e-05,-2.5931639375112838e-05,-0.024517577578304698,0.0016137569219284809,-0.0337560438566051,-0.020674344652391295,-2.580284425459973e-05,9.909744973853926e-07,-3.0772118280427976e-05,-2.2250608602771e-05,-0.037501234354207845,0.0014402585427716233,-0.04472345791894695,-0.03233850034139241,0.024517609844608747,0.0016137538861967452,0.020674375343032226,0.033756073950438704,0.06787330316742082,-0.000724207109528225,False,False,True
0,4.516508267721878,0.14981457794053563,4.274183714292173,4.88096346744304,0.3256962460554315,0.21062443544919793,0.06036206329006959,0.940506334036872,0.22052961152010778,0.6556107561097295,3.28982441288872e-08,5.414349996385507,1.2308694810638705,0.21601553544016708,0.9733131578015659,1.5437806158139722,0.0047371396269078065,7.508863476867614,-35.74,32.16,32.640990990990986,0.01656694161465855,32.61,32.66,-3.205629464583543e-05,1.1348997455365172e-06,-3.64146425267542e-05,-2.482816535915059e-05,-0.020654741761705644,0.002035892478098814,-0.035818866771647834,-0.010360898417785728,-2.75058608945538e-05,9.737992140038995e-07,-3.124553548474225e-05,-2.1303774194142445e-05,-0.039976357851984584,0.0014152963982563143,-0.045411511117699976,-0.03096239394388635,0.020654785545714822,0.0020358869989716604,0.01036099024026883,0.035818893332155426,0.07687959299039004,-0.00038083538083534595,False,False,True
0,4.704634799417713,0.08392401994626443,4.595776304903768,4.933742281569648,0.12699577287505776,0.06493947228938515,0.039489831296365185,0.3401321644393598,0.0982262080997423,0.2208924524710519,4.8450274015010564e-08,1.7727658882324473,1.6491490731617564,0.06927682985035774,1.5436333546761847,1.7484704480538298,0.04595022624434391,4.4664377292869695,-12.64,11.73,32.60090909090909,0.01499513404533312,32.57,32.63,-3.329021327115069e-05,6.441434081918983e-07,-3.6966379534735316e-05,-3.0345535438961837e-05,-0.017517966662169603,0.0015084914314190492,-0.02136974959783421,-0.010357556714744871,-2.8564623126374304e-05,5.527063928510502e-07,-3.1718952689056526e-05,-2.6037946237285214e-05,-0.04151513746050805,0.0008032902017645283,-0.046099564316453005,-0.03784292593141665,0.01751802211527914,0.0015084854720503228,0.010357633896084661,0.02136979411715065,0.0497737556561086,-0.00020719969343822368,False,False,True
0,4.883224678703401,0.06869103243085115,4.774554468853026,4.996162239741733,0.0886573153375028,0.0410991214884209,0.030042919987559542,0.16532333156821322,0.06161471708981981,0.18743963651879156,1.0815435036448662e-07,1.3642891423028694,1.8962755000310283,0.07130746032268816,1.751480260678618,2.005619343771121,-0.09071791972866024,4.532527724408869,-13.92,13.33,32.549459459459456,0.019439315262811528,32.5,32.59,-3.391343475723977e-05,4.117240132570581e-07,-3.586290551877307e-05,-3.255248347088633e-05,-0.015592637883683797,0.0005733852623085847,-0.017244772108356884,-0.013113111212797849,-2.909937749185087e-05,3.5327924080793014e-07,-3.0772118280427976e-05,-2.7931615054542318e-05,-0.042292336616686244,0.0005134475669151499,-0.04472345791894695,-0.04059513872642877,0.015592702018578451,0.0005733827483483392,0.01311318376346781,0.017244836854560824,0.045223289994347084,-0.00041611091611092716,False,False,True
0,2.7728169929431714,0.00966465548359758,2.7533176051983315,2.7934789941900076,0.0037208597324966367,0.003016747953684758,0.0001367005066951841,0.015075324709242765,0.001950851619171074,0.009857080909628162,6.834907905622911e-08,0.07274414401977033,-0.4849323618014558,0.00925520014384608,-0.5035090356491914,-0.4722355471847223,-0.16931599773883552,12.407139294405875,-32.23,24.83,31.614324324324322,0.014623867267500916,31.59,31.63,-3.3172797960085457e-06,9.969624480400995e-08,-3.86215905586787e-06,-2.758685039905621e-06,0.04287374658085004,0.0003254708766697864,0.041966566739677635,0.04334400981840004,-2.846387507521205e-06,8.554422997371386e-08,-3.313920430199936e-06,-2.3670860215713828e-06,-0.004136871266174997,0.00012432793006230777,-0.00481637239127121,-0.0034402659937651497,0.04287374680390094,0.0003254708727449108,0.04196656704823684,0.04334400997082525,0.13566986998304126,0.000208494208494204,True,False,False
0,2.7358463557798673,0.010966800971723863,2.718770673198891,2.754129490757703,0.0011072679646297236,0.0010986939824380155,1.3781886232152662e-05,0.003669040823136696,0.0009136641288336079,0.004294956256962525,8.494206439266239e-08,0.027185360620315045,-0.5257057096339713,0.012991726436739341,-0.5461954721879487,-0.5039716922274837,-0.010067873303167395,17.23854074553794,-54.22,45.14,31.637636363636364,0.012987451440233696,31.61,31.67,-3.5725595403664655e-06,2.926667866855084e-07,-4.965633071830118e-06,-2.758685039905621e-06,0.04279818543459893,0.0002908473627560007,0.041965230058461284,0.04403206301715307,-3.0654299519173293e-06,2.5112234623390754e-07,-4.260754838828489e-06,-2.3670860215713828e-06,-0.004455222295998126,0.0003649751889665226,-0.00619247878877727,-0.0034402659937651497,0.04279818569529581,0.00029084735222923206,0.04196523056854479,0.04403206316719645,0.14932126696832582,0.0002149539030272987,True,False,False
0,2.7083349694214474,0.007783682644922282,2.693090014503925,2.720571061424711,0.0013448344190293451,0.0018846553978827927,7.179166899877569e-06,0.0068210886396532135,0.0012661962401654169,0.0069005143246018644,1.1425618945274177e-07,0.04817379273543608,-0.5581484422266408,0.009456798353427989,-0.5729733780532577,-0.5463715089445017,0.06596382136800445,15.160438565587501,-46.44,26.67,31.65630630630631,0.018680467578728085,31.63,31.69,-3.6493283774498116e-06,3.115016988088488e-07,-5.517370079811242e-06,-2.206948031924497e-06,0.04279186571572469,0.00030113268126987685,0.041964561717853115,0.044032731357761236,-3.131301350255176e-06,2.672836174771842e-07,-4.7341720431427655e-06,-1.8936688172571063e-06,-0.004550958204874396,0.0003884635925849726,-0.006880531987530299,-0.00275221279501212,0.042791865988012934,0.00030113266046621353,0.041964562347595866,0.04403273145378754,0.1628038439796495,0.00030923130923133057,True,False,False
0,2.6898087811998743,0.00784087192100676,2.6737883232064243,2.7019720185216434,0.0014191738096999695,0.0015471215206012644,1.509623889121311e-05,0.005803124852991842,0.0008084900520838078,0.003670970973926516,7.914293353311619e-08,0.027266972396235167,-0.5796036449742616,0.00935066199476546,-0.5900977059380068,-0.5669101675392573,0.09925904977375544,14.580631192060517,-50.08,30.97,31.678181818181823,0.01563234814704764,31.65,31.71,-3.4233908244077683e-06,2.5990424066802367e-07,-4.965633071830118e-06,-2.206948031924497e-06,0.04288865365231466,0.0003357817850412929,0.041965230058461284,0.04403206301715307,-2.937435934008832e-06,2.2301048729123876e-07,-4.260754838828489e-06,-1.8936688172571063e-06,-0.004269198863303586,0.00032411808810046126,-0.00619247878877727,-0.00275221279501212,0.0428886538909955,0.0003357817729454887,0.04196523056854479,0.04403206316719645,0.15837104072398192,0.00028970087685684624,True,False,False
0,2.657385354365795,0.011038119995192696,2.642010763169796,2.679273945703881,0.0014712675896623988,0.0025097196655024627,9.052723294387292e-06,0.009540087011997832,0.0011201171614651487,0.005707577057030066,6.794341942002995e-08,0.038908793337321175,-0.6177897784137264,0.013365617275053098,-0.6315380267578619,-0.590144757740384,-0.12359525155455062,12.86094651745251,-46.42,21.85,31.70801801801802,0.018868917192992843,31.67,31.75,-3.365907464508577e-06,1.9817692702755963e-07,-4.413896063848994e-06,-2.206948031924497e-06,0.042889236901084635,0.0003343147594659061,0.041965898399069466,0.044032731357761236,-2.8881124136641576e-06,1.700454480954292e-07,-3.7873376345142126e-06,-1.8936688172571063e-06,-0.0041975132430142476,0.0002471399717399837,-0.00550442559002424,-0.00275221279501212,0.04288923713126461,0.0003343147507095598,0.04196589880209199,0.04403273145378754,0.1492368569813454,0.00043067743067742165,True,False,False
0,2.6429740082701736,0.009336717439463727,2.6226258337421884,2.6656923493357625,0.00451253683467884,0.0056431246732252995,5.8599109753986924e-05,0.021483826167551873,0.003846874657733854,0.018456141460834925,8.223532460896466e-08,0.1264953585381745,-0.6374374006277089,0.0060738232723798495,-0.6529544043589981,-0.6315842130347783,-0.31170814479638004,9.040555998841898,-27.48,20.86,31.735454545454548,0.012966885391795625,31.71,31.77,-3.5894112363115904e-06,4.744592846294127e-07,-6.069107087792367e-06,-2.758685039905621e-06,0.04283786039833194,0.0003247761010201636,0.041964561717853115,0.04334400981840004,-3.0798895271622222e-06,4.0710915679212997e-07,-5.2075892474570424e-06,-2.3670860215713828e-06,-0.004476237495507552,0.0005916826744355531,-0.00756858518628333,-0.0034402659937651497,0.04283786066417669,0.00032477607568092754,0.041964562347595866,0.04334400997082525,0.1719457013574661,9.232919324662247e-05,True,False,False
0,2.564569395253942,0.044855096239489724,2.5041220974999114,2.6477986009015333,0.012982154212341208,0.008931573250540762,0.00038385882726862854,0.03161529795505033,0.012001384741309523,0.027237384870892195,3.6369126710233957e-08,0.14292649327702964,-0.7377323889568386,0.04775332431261013,-0.8207312429510637,-0.6536891000132186,0.3927997737556564,35.10115631527776,-209.12,174.36,31.766756756756752,0.01859433746465227,31.73,31.81,2.765550545661042e-06,3.6158780475188327e-06,-1.7655584255395975e-05,1.8759058271358226e-05,0.023408055547215405,0.008840125588034967,0.004817040731879381,0.0598492665011747,2.372976959634117e-06,3.102599339242248e-06,-1.514935053805685e-05,1.6096184946685404e-05,0.0034488277417134344,0.004509243391158037,-0.02201770236009696,0.02339380875760302,0.023408056409361024,0.00884012533843494,0.004817040786740613,0.0598492677772752,0.14479638009049775,0.00027325377325376743,True,False,False
0,2.4751457335863063,0.021243351035644054,2.44150938294599,2.5459572894156604,0.034299205592642046,0.028469033794124046,0.0007663774795176797,0.09495688013568294,0.024792082731523796,0.06540267039890817,3.7126008489707374e-08,0.4224497816077236,-0.8635462571383034,0.016095667519614883,-0.8890800758949367,-0.8236862337299139,0.04664782362916888,22.88772965318693,-126.53,108.67,31.78163636363636,0.013648757225897956,31.75,31.81,2.1626343129576874e-06,1.7079307057355165e-06,-6.069107087792367e-06,9.379529135679113e-06,0.021020154215085272,0.001115756845757812,0.015133828669525803,0.02477258851754176,1.8556454897612764e-06,1.465487665637031e-06,-5.2075892474570424e-06,8.048092473342702e-06,0.0026969506037095576,0.002129904589198856,-0.00756858518628333,0.01169690437880151,0.021020154536663584,0.0011157566932707445,0.015133829106078888,0.024772588688226408,0.14019219898247595,-4.039402204539733e-05,True,False,False
0,2.5696488217766147,0.07648908828741338,2.4251305823483533,2.672395471134605,0.06670937097151187,0.07289495050744269,0.0009272493866383456,0.24003237362462804,0.05726120063313032,0.1859634026505855,7.250437678019139e-08,1.246438725800051,-0.7855070967447682,0.07488825253572648,-0.8845352794897334,-0.6837615479117768,0.06718891402714866,35.532226345547954,-309.63,293.95,31.780090090090088,0.014739896107657205,31.75,31.81,5.643445730956252e-06,2.3874739976450978e-06,-5.517370079811242e-06,1.6000373231452603e-05,0.018757064133189567,0.0020689141296838806,0.007587967063920298,0.03164510041777401,4.842351087567522e-06,2.048568881529223e-06,-4.7341720431427655e-06,1.372909892511402e-05,0.007037756813489704,0.0029773408295199824,-0.006880531987530299,0.01995354276383787,0.01875706596890886,0.0020689132385716263,0.007587996353665443,0.03164510095223913,0.16289592760180996,0.00013829413829413533,True,False,False
0,2.5606152573070378,0.017246797292091443,2.52711820627002,2.6130415851636437,0.029312156837135613,0.03379555029144248,0.00016395541279272906,0.11039546697236136,0.01585589011075262,0.07273648473534117,3.06355947277126e-08,0.5172162659746358,-0.7585889592108027,0.025313162147132032,-0.8038126963206076,-0.7302045110800872,0.13624081401922053,34.1850261842189,-257.85,127.83,31.781636363636363,0.01656387540121305,31.75,31.81,-1.7740370959447313e-05,6.6759316693804045e-06,-3.365595748684858e-05,1.6000373231452603e-05,0.031127495036942402,0.01745605480336807,-0.050253948792689865,0.05709170698129721,-1.5222101656459949e-05,5.7282742708811336e-06,-2.8878449463170872e-05,1.372909892511402e-05,-0.022123437088944885,0.008325336298505084,-0.04197124512393483,0.01995354276383787,0.03513553227900365,0.006231320671962958,0.0007160758080762169,0.057091709874326636,0.11305822498586772,-0.0003462344746748342,True,False,False
0,2.556599686083388,0.020683690294829873,2.534175331153082,2.6397911930102205,0.029326950835758304,0.022013043360141246,0.0002730883990381544,0.08047793205766424,0.024983832590365452,0.08235860345190782,4.5528601777533595e-08,0.5460115836222098,-0.7634560817068459,0.01722901498305585,-0.7929557068601115,-0.7428581018843621,-0.3630599547511305,50.67722010030058,-517.92,207.69,31.735225225225225,0.02048710667033102,31.71,31.77,1.348759812496843e-06,9.100356576813624e-06,-2.6483376383093966e-05,2.2069480319244968e-05,0.02753465852572844,0.005891327008093415,-0.0034462810592386915,0.05436088108574656,1.1573015594153296e-06,7.808548831303951e-06,-2.2724025807085277e-05,1.8936688172571062e-05,0.0016819943014765816,0.011348757400525876,-0.03302655354014544,0.027522127950121197,0.02754245805765233,0.005854726180061289,0.0020541634336629744,0.05436088132395408,0.15837104072398192,-0.00044120744120743196,True,False,False
0,2.559555469693113,0.020704522530175292,2.5203519791489613,2.5813645333312714,0.018750241570597587,0.013428889621634028,0.0012683855888820312,0.050137853051196855,0.014537848555613797,0.04298744684750806,2.6871464053890293e-08,0.3471213937845138,-0.7491195359556367,0.029157922364609012,-0.8055146809864987,-0.7144319906522612,0.7993834841628957,21.05830104527455,-89.67,63.95,31.717454545454547,0.012373125926956793,31.69,31.75,9.421346307098497e-06,4.2265243806431056e-06,-4.965633071830118e-06,1.434516220750923e-05,0.020066139502885653,0.0015629150415745652,0.011698241060017852,0.026153373299305022,8.083973641542992e-06,3.626563611478174e-06,-4.260754838828489e-06,1.230884731217119e-05,0.011749053207213788,0.005270760484873342,-0.00619247878877727,0.01788938316757878,0.0200661443027376,0.0015629126278865516,0.01169824115037974,0.026153374521958872,0.15837104072398192,-5.076302324008637e-05,True,False,False
0,2.506213573346282,0.0095676107948642,2.4889386135681986,2.524313331948845,0.008907166400479297,0.010078765603325166,0.000266483253292189,0.033888907491497644,0.005029856699380001,0.017497376929856336,9.046862236433695e-08,0.14440686594518995,-0.8019176099070005,0.005465798786020346,-0.8091883058345585,-0.7924228529386799,-0.6186489542114185,33.3945581250969,-263.15,142.37,31.731441441441444,0.01518652793203966,31.71,31.75,3.591907783859016e-06,1.6894226077941677e-06,-7.72431811173574e-06,1.9862532287320473e-05,0.020645168640194153,0.0037584352006437816,-0.004126982511301837,0.03649087979580475,3.0820316864577623e-06,1.4496068168670168e-06,-6.627840860399872e-06,1.7043019355313955e-05,0.004479350858397836,0.002106823744870546,-0.00963274478254242,0.02476991515510908,0.0206638530579489,0.0036541966853530176,0.000697484233376438,0.03649088918150076,0.12662521198417184,0.00010600210600210373,True,False,False
