,EDA_mean,EDA_std,EDA_min,EDA_max,EDA_phasic_mean,EDA_phasic_std,EDA_phasic_min,EDA_phasic_max,EDA_smna_mean,EDA_smna_std,EDA_smna_min,EDA_smna_max,EDA_tonic_mean,EDA_tonic_std,EDA_tonic_min,EDA_tonic_max,BVP_mean,BVP_std,BVP_min,BVP_max,TEMP_mean,TEMP_std,TEMP_min,TEMP_max,ACC_x_mean,ACC_x_std,ACC_x_min,ACC_x_max,ACC_y_mean,ACC_y_std,ACC_y_min,ACC_y_max,ACC_z_mean,ACC_z_std,ACC_z_min,ACC_z_max,Resp_mean,Resp_std,Resp_min,Resp_max,net_acc_mean,net_acc_std,net_acc_min,net_acc_max,BVP_peak_freq,TEMP_slope,0,1,2
0,8.801907955909995,0.25439927421300107,7.885669324693884,9.154045853481007,0.22070532995121817,0.14350227203490654,0.038177469504890156,0.5225085653803241,0.18286111785842457,0.3491369562061929,1.803985938408914e-08,1.9224814473914353,0.27563356195009814,0.16832814970537163,-0.004438671646997072,0.46871788714887197,-2.5533747880158284,150.00827538890692,-756.5,526.02,34.78981981981982,0.009532907787046197,34.77,34.81,2.1180466790000808e-05,1.0122564397013114e-05,-7.72431811173574e-06,6.786365198167829e-05,0.027671401015006786,0.013602653801906,-0.014405675034282495,0.05645110596572434,1.8173871298726816e-05,8.685652888974103e-06,-6.627840860399872e-06,5.823031613065602e-05,0.026413468219701062,0.012623519380064294,-0.00963274478254242,0.08463054344662269,0.02808132719088528,0.012733922882059004,0.0006488018270893337,0.05645111587151265,0.07235726399095534,-8.266058266058578e-05,False,True,False
0,8.14248333012229,0.07111055072710257,7.9974658957679186,8.307644714284837,0.12392145841169537,0.11455374706260493,0.013011740323694197,0.33732592411149953,0.06638653683336168,0.14343910247033237,4.329834846217295e-08,0.8284593324156262,0.1803952772736201,0.11450757478514374,-0.005038286043040241,0.30217097785720337,4.644773755656109,95.11695773067876,-596.77,304.74,34.79236363636363,0.011081621509481625,34.77,34.81,2.9105999581664873e-05,8.420042080290554e-06,-3.86215905586787e-06,5.075980473426343e-05,0.008717647995488137,0.016377507460025625,-0.019221379084945533,0.046109589425575574,2.497436414704975e-05,7.224805884321055e-06,-3.313920430199936e-06,4.355438279691344e-05,0.03629714125639004,0.010500359416124637,-0.00481637239127121,0.06330089428527876,0.012068286475713987,0.014088978667423443,5.431418461266541e-05,0.04610959071512244,0.08144796380090498,4.62547618510778e-05,False,True,False
0,8.127165712095712,0.11079547397678013,7.690370303884687,8.295849911286346,0.11186949421554421,0.07755819419485788,0.01053136298650146,0.23264000486759118,0.08485442957226029,0.21059091345615638,2.615344740775072e-08,1.587027705537075,0.18828742732398168,0.07094203460955541,0.0835321518483052,0.29303706753955716,-0.5166421707179197,102.41886848611696,-392.71,467.79,34.770540540540544,0.017778323769939663,34.73,34.81,1.2970188645764416e-05,7.4802762862926405e-06,-9.379529135679113e-06,4.08285385906032e-05,0.030061219869279267,0.014538961155906195,-0.012368249062350256,0.07021016491896043,1.1129053080152695e-05,6.418441097350124e-06,-8.048092473342702e-06,3.5032873119256466e-05,0.016174698555754204,0.009328408194282607,-0.01169690437880151,0.05091593670772422,0.03134467394351072,0.011510033972572706,6.023936838859253e-05,0.07021017187853622,0.11305822498586772,-0.00021726921726922084,False,True,False
0,8.013933918133269,0.11562036183330665,7.6418795447343175,8.28129761328674,0.07709284793886259,0.044951103953334445,0.006515690758304811,0.14395289842111705,0.05969675643324188,0.14790346893691733,3.411512694562191e-08,1.1576058717254158,0.19009573190846968,0.0508515385258514,0.1160362554895602,0.2753253097766122,-1.0695701357466043,77.46184959120299,-347.19,536.76,34.73690909090909,0.017227322790908488,34.71,34.77,1.6602041190382246e-05,6.168768237336782e-06,-1.655211023943373e-06,5.296675276618793e-05,0.024368165185033527,0.016508760683897745,-0.022677016912698623,0.08740748484413714,1.4245359315339091e-05,5.293103363990038e-06,-1.4202516129428298e-06,4.5448051614170555e-05,0.020703863220396603,0.007692869350193874,-0.00206415959625909,0.06605310708029088,0.028151980128902163,0.0085783538898688,5.5301715241986593e-05,0.08740748898318727,0.06334841628959277,-0.00013993643351442164,False,True,False
0,7.955484632203943,0.05442165958832315,7.868457519580016,8.095409658942692,0.010075629002984098,0.014929674888074965,0.00017252527876700734,0.058800847242500114,0.0067668171238351735,0.027609426435603237,5.829738439211418e-08,0.17813857265353938,0.24032924953670784,0.011190631675309762,0.2287465994727873,0.25846506014856896,1.2592651215375918,44.68365010340718,-320.52,190.61,34.69279279279279,0.018933912392663812,34.66,34.73,1.769860103906908e-05,7.435924446486146e-06,8.276055119716864e-06,4.579417166243331e-05,0.021276451889530465,0.017648461211954902,-0.029532820297726584,0.043371411783335055,1.518626103195254e-05,6.380385060318612e-06,7.101258064714148e-06,3.929362795808496e-05,0.02207134718576245,0.009273098463726188,0.010320797981295449,0.05710841549650149,0.02620262873835462,0.008792831966804443,0.002089061386093136,0.043371419680064804,0.18993781797625775,-0.00029080379080380397,False,True,False
0,7.923571944942955,0.07736181531306156,7.785154437923258,8.114498993843016,0.01863073960849072,0.016512067327410226,0.00022316478008740971,0.060485927461292104,0.014302070027253784,0.03669881235530337,3.9941482898875336e-08,0.24254390071923926,0.22238045214855975,0.007081716651456293,0.20096115337888087,0.22871489107355147,-1.7451244343891408,61.25868212502413,-324.32,171.45,34.67881818181818,0.01885394457459089,34.65,34.71,3.151828864936515e-05,1.0815526735834536e-06,2.5379902367131716e-05,3.9725064574640946e-05,-0.0026089574622025027,0.005563230056429776,-0.02404510322290663,0.008982786998455153,2.7044225566364988e-05,9.280248300183393e-07,2.177719139845672e-05,3.408603871062791e-05,0.03930542814912812,0.0013487690075421697,0.03165044714263938,0.04953983031021816,0.004848802758193242,0.0037720167951181887,5.33266539833442e-05,0.024045136469282104,0.13122171945701358,-8.137411807137829e-05,False,True,False
0,7.68110004714432,0.06557138354342366,7.456648089053637,7.806991932430828,0.012887563177193433,0.01487056503785239,1.7439889504763378e-05,0.05950645485445094,0.010502965545442947,0.03200091574198129,2.827122103088442e-08,0.20072273934064344,0.15772615163936454,0.018336728310282883,0.13850292819874632,0.19995155900993555,0.781866515837103,86.61634557514296,-550.07,305.19,34.670180180180175,0.012790762432460408,34.65,34.71,2.7930749823714128e-05,7.70218388987659e-06,0.0,4.855285670233894e-05,0.00703812177164569,0.01752351020995293,-0.01303692038346632,0.05642036229774846,2.3965942658674424e-05,6.608848620835277e-06,0.0,4.166071397965634e-05,0.03483152567578829,0.009605141917532834,0.0,0.06054868149026664,0.013850613788900712,0.012830018112865531,8.295257286297987e-05,0.05642036229774846,0.12669683257918554,8.424008424008568e-05,False,True,False
0,7.3859594516071505,0.14968326932755857,7.07564797167289,7.5991017195390835,0.017561111370939426,0.01018560762749357,0.004662163731892565,0.04155673239713896,0.013478086489155196,0.032162155257906576,3.4695073758417294e-08,0.14822424138388135,0.0673609348324037,0.04960158506958621,-0.009576226731582538,0.13812504631017053,-0.08319389485585106,79.28401665944565,-353.03,178.51,34.68309090909091,0.015189654527690626,34.66,34.71,2.9589705668978642e-05,6.909529721061495e-06,-5.517370079811242e-06,4.744938268637668e-05,0.009123749444042048,0.016318111749165927,-0.016475181355406956,0.04409288201249665,2.538940751056056e-05,5.928712767774398e-06,-4.7341720431427655e-06,4.071387957102778e-05,0.036900355316382805,0.008616648797678872,-0.006880531987530299,0.059172575092760575,0.013867891570430762,0.012533285072639061,6.122689901791373e-05,0.04409292634008155,0.11305822498586772,-5.049252755677357e-06,False,True,False
0,6.9835286531998335,0.10715681484750497,6.631336268973746,7.302317824847625,0.07159717335154894,0.07104472609592942,0.0034843810532537278,0.22616072229276038,0.06512334258345363,0.17768566568115285,2.1818125417460976e-08,1.1798603234207947,-0.10356695137290209,0.05890908730156123,-0.19181810793462523,-0.010647967175863027,-0.07990950226244291,73.88139843059854,-640.72,286.49,34.70891891891892,0.016697923188846685,34.68,34.75,3.269166599665533e-05,1.983219158823837e-06,2.427642835116947e-05,3.917332756665982e-05,-0.002173221981153234,0.01006638785724082,-0.028178100799682006,0.0069206324240205785,2.805104043526866e-05,1.7016985558906233e-06,2.083035698982817e-05,3.3612621506313634e-05,0.04076870870756217,0.002473207826044032,0.03027434074513332,0.04885177711146513,0.007791458442421051,0.006729539076926579,5.5301715241986593e-05,0.028178122407776094,0.05882352941176471,0.0002030537030536811,False,True,False
0,6.688434820553268,0.16348955824282752,6.360318902323145,7.128927156833587,0.06492073305643208,0.05178969986376303,0.0013500424644688643,0.19314395882204216,0.03929380177347737,0.13232348461176535,3.2750920420099305e-08,0.8470846628776334,-0.1825818865909879,0.040248144826854265,-0.22550687352586307,-0.11392953236150027,0.5431882419446025,89.80734985144967,-460.25,331.4,34.73872727272727,0.01963469550879646,34.71,34.77,3.343900327354075e-05,4.7280453325404586e-07,3.144900945492408e-05,3.531116851079195e-05,0.0007394436281123831,0.006586785638636417,-0.010969419084166371,0.010360898417785728,2.8692292189610004e-05,4.056892995800365e-07,2.6984780645913764e-05,3.02987010761137e-05,0.04170068861188279,0.0005896190880520199,0.03921903232892271,0.04403540472019392,0.006188183995787695,0.0023660398795352844,5.826430712995015e-05,0.010969502946048789,0.07687959299039004,0.0004531704348218428,False,True,False
0,6.690661795825451,0.05844076583563314,6.519468774214778,6.7980568606882485,0.03018130123305936,0.01810638033418063,0.00040276067419067583,0.05607864453958529,0.025090812155031776,0.07137458402874143,3.483956390049059e-08,0.46788022634794524,-0.14706359775460198,0.012146830276317452,-0.16335354448511258,-0.11570724756893147,0.03445701357466106,109.20720861204445,-518.44,309.6,34.76045045045045,0.025276197476800134,34.73,34.83,2.024450406207664e-05,9.003619884783762e-06,-1.0483003151641362e-05,4.910459371032006e-05,0.01552829181213603,0.02011090724738133,-0.030234908649251213,0.08743288178724765,1.737076972753153e-05,7.725544041643448e-06,-8.994926881971256e-06,4.2134131183970615e-05,0.02524625967732272,0.01122812023204685,-0.01307301077630757,0.06123673468901967,0.022688044574016998,0.011424537127631288,4.740147020741708e-05,0.08743289878899523,0.05882352941176471,0.0006621621621621849,False,True,False
0,6.378407677818132,0.13468806473603778,6.0459253372551025,6.634378536167731,0.03317880860914367,0.024540569848447543,0.0028316870557682458,0.09519912425056913,0.030977601165550157,0.07777030224975419,1.680212247112678e-08,0.4969172782960907,-0.2407270404937794,0.050699769365029866,-0.3457502167578373,-0.16464542869543136,0.44521493212669716,119.99551973695945,-594.42,532.26,34.806363636363635,0.01438189947562939,34.79,34.83,2.181483246940753e-05,1.3863314271151525e-05,-2.2621217327226096e-05,6.179454489388592e-05,0.021421454941470693,0.012739194908020302,-0.02129422710911085,0.0667645522003299,1.871818792442601e-05,1.1895398332611579e-05,-1.941010537688534e-05,5.302272688319898e-05,0.02720456493531211,0.017288486346942078,-0.02821018114887423,0.07706195826033936,0.02403974960828216,0.00656678122210269,5.2339123354023015e-05,0.06676455704914926,0.06334841628959277,-4.1115343867626704e-05,False,True,False
0,6.1614493502903676,0.06325084650513908,5.8136028780551925,6.233785224623561,0.043160167062879506,0.032208594298203906,0.0006780316027776342,0.09636078064427583,0.029251279768656168,0.06614262811504072,3.450503260893356e-08,0.34335248492671044,-0.3140139184284947,0.034402488253996125,-0.390111835699434,-0.27045514948767,0.7329847371396268,91.60968714967302,-629.49,304.2,34.81288288288289,0.013973181285941176,34.79,34.83,1.5938583679653813e-05,7.228524678241579e-06,-1.8759058271358226e-05,4.4138960638489935e-05,0.02798742421369174,0.003027103129848723,0.0027949865939350836,0.03786297614966179,1.3676080482549413e-05,6.202425965609613e-06,-1.6096184946685404e-05,3.7873376345142124e-05,0.01987648703230331,0.009014456987992166,-0.02339380875760302,0.055044255900242395,0.027987434806632617,0.0030270930021498313,0.0027953738480184253,0.03786298243130981,0.18541548897682306,-0.0001502281502281384,False,True,False
0,5.883733001539766,0.16069187575545993,5.526737993110104,6.1700206624463165,0.0758112942748159,0.026659886727268683,0.029726390891608584,0.1311872518032924,0.0632014280452089,0.14165622978234277,2.408658472674574e-08,0.8748862419172997,-0.42694769013347783,0.050820286032835955,-0.5123485446885536,-0.36952368027493876,-2.658484162895927,143.4353770838016,-976.29,431.5,34.81609090909091,0.015089668045876756,34.77,34.84,2.0589651760508267e-05,1.3421434396714352e-05,-2.482816535915059e-05,4.579417166243331e-05,0.005910753594223275,0.022496580776459076,-0.036438749228367394,0.04612897130321254,1.76669232501399e-05,1.1516243895311361e-05,-2.1303774194142445e-05,3.929362795808496e-05,0.025676682096904643,0.016737432390667523,-0.03096239394388635,0.05710841549650149,0.021162204534968754,0.00962952184624283,6.122689901791373e-05,0.0461289823943836,0.07692307692307693,0.00035520591483891516,False,True,False
0,5.674329608581121,0.07455662482276945,5.502574154654979,5.758448608698875,0.036227562142760475,0.021032892082553056,0.010035525603387097,0.10100198051812702,0.022515253795668315,0.06916616457232179,2.4734633619072355e-08,0.5585355104438555,-0.44825982607255377,0.026819218270519453,-0.5048043581981279,-0.4127319314836442,1.2572752967778411,77.22938366870353,-296.83,321.82,34.85333333333334,0.017854631858087108,34.83,34.89,2.293854403577117e-05,8.083585403860006e-06,-2.758685039905621e-06,4.193201260656545e-05,0.019153332896792757,0.018481810277762578,-0.02267568023148228,0.06194617478723418,1.968238713620282e-05,6.936109681556871e-06,-2.3670860215713828e-06,3.5979707527885024e-05,0.028605908920812412,0.010080775286165801,-0.0034402659937651497,0.05229204310523028,0.024148123543425336,0.01118266368193177,5.826430712995015e-05,0.06194617915572392,0.11758055398530243,0.0003325728325727982,False,True,False
0,5.4719158777490025,0.07459877020257899,5.30028709710445,5.606913164992656,0.023370894734742548,0.024617965911921585,0.00040528329295400024,0.07910853221561603,0.01705883277278033,0.05819127708329017,3.4860459741103966e-08,0.37204545213928375,-0.49457740899744523,0.024661827117968247,-0.5256157747763702,-0.46341010246757275,0.48397058823529365,72.49019844415784,-308.79,223.45,34.869279279279276,0.017669270279303376,34.84,34.89,2.6572003821027583e-05,1.04308170329174e-05,-1.4896899215490354e-05,4.6345908670414436e-05,0.009295220646393773,0.02225550969825711,-0.031619035134055326,0.05367082286516902,2.2800072462076936e-05,8.950148652356548e-06,-1.2782264516485466e-05,3.976704516239923e-05,0.033137077922750564,0.013007931172439934,-0.018577436366331808,0.05779646869525452,0.020198411790241632,0.013167013020596429,5.9251837759271344e-05,0.053670822943951126,0.06787330316742082,7.265707265704023e-05,False,True,False
0,5.405903711520469,0.05002135012434194,5.317705379033727,5.52423222121365,0.011502637116598572,0.015745833470799372,3.7536768144316114e-05,0.0481551381974689,0.006893310343181234,0.02902460744764474,5.856178346419494e-08,0.22395659735385998,-0.501286516442406,0.008368253133830916,-0.5189861778851764,-0.49054180875292286,-0.7718032786885243,56.71523529296907,-305.24,348.22,34.86309090909091,0.022736845356835025,34.83,34.89,9.66351141919881e-06,3.101194654694819e-06,2.758685039905621e-06,2.0966006303282724e-05,0.041304237803034015,0.0012849231753674193,0.031663813954802805,0.045430224654728776,8.291763093210346e-06,2.660975940026534e-06,2.3670860215713828e-06,1.7989853763942512e-05,0.012051049407571452,0.003867398545416349,0.0034402659937651497,0.02614602155261514,0.04130424000256428,0.0012849220519482037,0.03166381729323543,0.04543022921527675,0.18089315997738833,-0.0003774316434866813,False,True,False
0,5.188857162403483,0.0709266197276838,5.082947377939182,5.32633395204194,0.0005483633115655894,0.000720031927043263,1.437924789142217e-06,0.0028128791337880136,0.00042798221488266937,0.002919739773484596,5.6808792257140306e-08,0.029484339819570857,-0.5535478818040387,0.020946342974456095,-0.5848594996342564,-0.5152020422195936,-0.3415780542986427,27.14836464162989,-69.36,153.47,34.825675675675676,0.00949848041641973,34.81,34.84,1.3310967385988052e-05,2.0744947074398347e-06,-4.965633071830118e-06,1.9310795279339348e-05,0.03981268524026345,0.001003091313430919,0.0344260518589375,0.04678694917459787,1.1421457823993866e-05,1.7800174187237568e-06,-4.260754838828489e-06,1.656960215099968e-05,0.016599672590278135,0.0025870345809738426,-0.00619247878877727,0.02408186195635605,0.03981268922457707,0.0010030902368494516,0.034426061262549094,0.046786949180246215,0.16742081447963802,-9.336609336608002e-05,False,True,False
0,4.992838626951527,0.04876606130756948,4.909069568094539,5.08358874342779,0.0004373513698013306,0.0006364169390159959,4.7470472858341563e-07,0.0023919719741291564,0.00030091757779328863,0.0018033612483151096,7.494929611835677e-08,0.012634978926721474,-0.610433052921306,0.014529231747532616,-0.6329062074968597,-0.585347988738782,0.3922454751131223,22.49176529666849,-59.31,41.76,34.780181818181816,0.01910770141970497,34.75,34.83,1.366173231640139e-05,7.353819638188102e-07,1.2138214175584734e-05,1.6000373231452603e-05,0.03973838942617013,0.0003132046944481283,0.03854835598598213,0.04061385226345757,1.1722431205017196e-05,6.309935138992054e-07,1.0415178494914085e-05,1.372909892511402e-05,0.017037100076363207,0.000917070823946121,0.01513717037256666,0.01995354276383787,0.03973839351891026,0.00031320424436340124,0.0385483606203092,0.04061385736483813,0.17647058823529413,-0.0004024975768094784,False,True,False
0,4.792860985331144,0.08150551912610965,4.574539973750087,4.915361476566177,0.017276053238657572,0.016386295483982474,5.873534504488603e-06,0.05100104878744312,0.013888202890507283,0.03647225107069277,2.5712077245110265e-08,0.30813602364804843,-0.6851070642270535,0.030463258951981077,-0.7199936387901457,-0.633174457484249,0.38068400226116483,48.48676258260891,-229.51,263.68,34.74963963963964,0.017680391189006814,34.71,34.77,1.2009787256212856e-05,4.039107442582745e-06,-1.655211023943373e-06,5.2415015758206804e-05,0.02550905695704539,0.01667923851593344,-0.008245276594697449,0.04272279068046413,1.0304981947921158e-05,3.465750757574575e-06,-1.4202516129428298e-06,4.497463440985627e-05,0.014977013356811716,0.005037038943871798,-0.00206415959625909,0.06536505388153785,0.025645463045215013,0.01646850312314824,1.975061258642378e-06,0.04272284650603667,0.18541548897682306,-0.0003030888030888483,False,True,False
0,4.462434973274361,0.2566338405861659,3.3113449025310406,4.704227334648263,0.08478881933302376,0.07808898530451744,0.006096979409836581,0.29517248325628287,0.07312154572776851,0.13849417504823944,2.237141805139231e-08,0.6128932488505274,-0.8490640533402373,0.1369484730613441,-1.216484835323195,-0.7103859147008138,1.1839536199095029,57.913039993436534,-198.95,194.06,34.74490909090909,0.01589792292390596,34.71,34.77,1.042683083182428e-05,4.0581126454050945e-06,-5.517370079811242e-06,2.7035113391075092e-05,0.003170358739299946,0.005752164834759376,-0.0123695857435666,0.03234919379112315,8.946728297821609e-06,3.482058146525164e-06,-4.7341720431427655e-06,2.3197443011399553e-05,0.013002960111276152,0.005060739711458002,-0.006880531987530299,0.03371460673889847,0.004717172579549066,0.0045687260913005335,0.0,0.032349195882452164,0.1719457013574661,-2.4524941956121025e-05,False,True,False
0,4.637215081850185,0.3856192228805672,3.0544231222459333,5.309622915717963,0.19577844682619297,0.22601607256970785,0.005878933464461859,0.7251457059257289,0.14247761792456917,0.6824095095952998,2.8356385017858088e-08,6.884645051444499,-0.9088154674303526,0.18820592219066723,-1.2492051293531092,-0.7404254834942997,-1.9261051441492383,63.77946648725153,-258.98,246.14,34.752882882882886,0.013973181285944025,34.73,34.77,1.5999124957678892e-05,2.8150325573261373e-06,7.72431811173574e-06,2.6483376383093966e-05,0.014829647634640857,0.004148319608264191,0.0007134501418635397,0.024796648779435933,1.3728027845466252e-05,2.4154349337911395e-06,6.627840860399872e-06,2.2724025807085277e-05,0.01995198608239273,0.003510535142004531,0.00963274478254242,0.03302655354014544,0.014829667420837061,0.0041483040818483625,0.0007139848129924489,0.024796665831333494,0.09949123798756358,0.00016707616707619318,False,True,False
0,4.259031533790598,0.07721873866191767,4.138910721105773,4.434851724011146,0.020728928092888045,0.02256440484626779,2.551936222105279e-05,0.06563602568420548,0.01859126826728115,0.07798944495621153,2.730810999551636e-08,0.5569367096417059,-0.8436589309942487,0.02163614335708396,-0.8667519467850684,-0.7953606445199568,-0.36764140271493134,82.6498697528038,-477.71,267.62,34.754363636363635,0.01656387540121543,34.73,34.79,1.0508592764002478e-05,4.8606641016057565e-06,-1.434516220750923e-05,2.482816535915059e-05,0.018740385595041213,0.006659751789283558,-0.009614699586121794,0.04333398470927746,9.016884014750536e-06,4.170686353835606e-06,-1.230884731217119e-05,2.1303774194142445e-05,0.013104922745932992,0.006061575415090299,-0.01788938316757878,0.03096239394388635,0.018972714073803975,0.005964962447320508,0.0006657886227063098,0.04333398714864492,0.07692307692307693,-0.00014282172080338552,False,True,False
0,4.224572619812664,0.10415881226155917,3.779974072568098,4.407416942286109,0.07545123080286724,0.049385683872586336,0.01104811034008488,0.1864508214760739,0.06762174959610524,0.14568612594388275,3.287527938766743e-08,1.0036310858415523,-0.9084558784811824,0.056731282506121326,-1.0241835668172132,-0.850882872768876,-0.06166195590729234,83.01810424013235,-376.34,252.79,34.77936936936937,0.02187897618010528,34.73,34.81,1.6659963914440207e-05,2.7987865833895512e-06,2.758685039905621e-06,2.813858740703734e-05,0.004206032190009577,0.007117246452352592,-0.019931487523768214,0.019976266344515693,1.4295059831514591e-05,2.401495097508335e-06,2.3670860215713828e-06,2.4144277420028106e-05,0.02077609675737539,0.003490275318624496,0.0034402659937651497,0.03509071313640453,0.006501836561429088,0.005103402022775673,2.2713204474387347e-05,0.019976281637393567,0.03165630299604296,0.00046647946647946216,False,True,False
0,3.994484800092027,0.1334143465473527,3.778813030115007,4.161725549974506,0.04203631424498919,0.041249011869241986,0.0002536407026991633,0.17749174865223716,0.019718827557488775,0.08950188040485212,4.452725443915284e-08,0.7662576914172794,-0.9418411624077684,0.05401228591163291,-1.026137459577904,-0.8836265904843631,1.0136990950226252,71.06089098528045,-340.65,367.27,34.82445454545454,0.014180123292146633,34.77,34.84,1.56433669321707e-05,3.288892947617169e-06,-1.3793425199528107e-05,3.0345535438961837e-05,0.02073370941246193,0.023646190675045215,-0.02267969027513131,0.06604976537725003,1.342277014585184e-05,2.8220302100944594e-06,-1.1835430107856916e-05,2.6037946237285214e-05,0.019508331870527085,0.004101470954875104,-0.01720132996882575,0.03784292593141665,0.02809187820209884,0.014123349173219142,2.7650857620993297e-05,0.06604976547727642,0.17647058823529413,0.00027387687938147643,False,True,False
0,4.021623736064705,0.034878356990470975,3.9690029910617177,4.101556074032614,0.004159843665972214,0.00622004273827489,9.131316571989893e-06,0.022162570771692657,0.0032175043101104416,0.014943041343019136,8.662055668920421e-08,0.11664022019615172,-0.8962704009794763,0.005612465942129483,-0.9073175734855224,-0.8897141912204272,-0.26881787330316703,45.36530365218786,-273.12,200.32,34.83711711711712,0.0123131406072305,34.81,34.87,1.73397709906466e-05,3.3654900621789132e-06,-7.172581103754615e-06,2.813858740703734e-05,0.03724281437731178,0.0023637947943087136,0.02270842892128267,0.0674512687178666,1.4878367387171079e-05,2.8877542621515257e-06,-6.154423656085595e-06,2.4144277420028106e-05,0.021623861954475878,0.004196992714204439,-0.00894469158378939,0.03509071313640453,0.03724282177049686,0.002363792886481299,0.02270842910748228,0.06745127298448317,0.1719457013574661,9.126009126012124e-05,False,True,False
0,3.9669466647651577,0.05832470899124722,3.6540857124033734,4.119338100693892,0.015951680778937487,0.013370012979267978,0.0001328056841780431,0.04331305217866657,0.014863719830008056,0.033345662384513544,1.7830888154879432e-08,0.2494870772382094,-0.9236765153899735,0.022781903459815043,-0.9621250013035147,-0.9020595005429641,2.264697569248163,78.0657128086674,-230.2,717.77,34.82745454545454,0.011996663422706453,34.81,34.87,1.7241781499410134e-05,5.237849900980802e-06,4.413896063848994e-06,5.1311541742244554e-05,0.035759178261589204,0.009989070792953898,-0.022664318441143368,0.04955119210055707,1.4794287634821142e-05,4.494330126256413e-06,3.7873376345142126e-06,4.402780000122772e-05,0.021501662461032186,0.0065319515037522684,0.00550442559002424,0.06398894748403179,0.03648294775082422,0.0068873970594571,2.9625918879635672e-05,0.04955119364186567,0.18089315997738833,-0.000173477898248529,False,True,False
0,3.8343477991726407,0.04307741946486722,3.7508824558490383,3.923011340474054,0.007461155352985165,0.00868321705983561,0.00018270185758966398,0.031194183824820924,0.0033083494135123428,0.012661847366535407,3.2232273971394276e-08,0.079248429671819,-0.9537740154450103,0.007944395390338008,-0.9698338113311109,-0.9441950315753351,-2.5740950226244332,85.64897358424079,-367.08,248.82,34.80549549549549,0.01599651886782322,34.77,34.84,2.0473562299552967e-05,3.2031258077528624e-06,7.72431811173574e-06,3.8621590558678696e-05,0.03424065859067086,0.003663768104157309,0.0041751030350901715,0.04474217145597575,1.7567312842897302e-05,2.7484378300488188e-06,6.627840860399872e-06,3.313920430199936e-05,0.025531910722506386,0.003994513556553269,0.00963274478254242,0.0481637239127121,0.03424067090614305,0.0036637547408868362,0.004175413175691504,0.04474217608665664,0.06787330316742082,-0.00023464373464375735,False,True,False
0,3.716632491459463,0.026983227738739582,3.671792702177,3.7644573360278226,0.0002696852099615227,0.0005261907120765382,2.0795677961888947e-07,0.002091210905996702,3.6272624789125636e-05,0.00031984459361051736,7.142775868907228e-08,0.0033097084013630935,-0.9808992552261039,0.007386615615841253,-0.9930867719965351,-0.970073154747879,0.5292029395138496,39.7135438829965,-96.17,69.27,34.794363636363634,0.013648757225899066,34.75,34.81,1.646420637714521e-05,4.1267176947447664e-07,1.4896899215490354e-05,2.04142692953016e-05,0.03816996685868066,0.000355762792131328,0.03649087979580475,0.03923774586595151,1.41270903375545e-05,3.540924617670673e-07,1.2782264516485466e-05,1.7516436559628233e-05,0.020531973927535335,0.0005146294827330133,0.018577436366331808,0.02545796835386211,0.038169973029821794,0.00035576256078182844,0.03649088918150076,0.03923775114624249,0.17637083097795364,3.750873475645114e-05,False,True,False
0,3.651297280296553,0.020473412130260063,3.607099467294674,3.6875212256679717,0.0005451787556862813,0.0011042402713655548,1.7510766176018726e-07,0.004248260442853258,0.00041939066910641796,0.003698401082533119,1.0261813500965693e-07,0.03812624336918822,-1.0000028225643787,0.005425897331715746,-1.0120491766496065,-0.9932176389814102,-0.44088800904977404,35.17786063796165,-85.05,50.66,34.78747747747747,0.012682734754450375,34.77,34.81,1.713817477619196e-05,2.0133296908786933e-07,1.6552110239433728e-05,1.82073212633771e-05,0.03778040361523249,0.00022916833621063572,0.03648820643337207,0.03855102934841482,1.4705388024056248e-05,1.727534857787403e-07,1.4202516129428297e-05,1.5622767742371126e-05,0.021372457901085353,0.00025107576869321213,0.020641595962590898,0.022705755558849988,0.03778041036593206,0.0002291682213526838,0.03648821384977417,0.03855103551794891,0.1809954751131222,-5.458055458054521e-05,False,True,False
0,3.562918340257785,0.03340665862214501,3.454306260559844,3.608258563924477,0.0020677935733382806,0.0026360105842033474,1.4027918592310994e-07,0.00836749151292618,0.0016966722147078,0.006412275178545072,3.4902084833365876e-08,0.038712234991193015,-1.0272394380759589,0.01131044901823077,-1.0436626461142395,-1.0123159629619631,0.4018552036199091,47.187466923962106,-180.73,276.6,34.771454545454546,0.015255401427929326,34.73,34.79,1.9907470143174145e-05,2.261733514988382e-06,7.72431811173574e-06,3.64146425267542e-05,0.034714760701878705,0.002287902993151056,0.022731820842568667,0.04543356635776963,1.708157822263367e-05,1.940677427979117e-06,6.627840860399872e-06,3.124553548474225e-05,0.024825955687134214,0.0028205339812331933,0.00963274478254242,0.045411511117699976,0.034714770872690495,0.0022879009813057145,0.02273183852494759,0.04543357269204432,0.1719457013574661,-0.00011685413520276194,False,True,False
0,3.5435991364366806,0.019594649523585334,3.511060738997203,3.5902750602777145,0.00234910160165282,0.0024554112834869403,2.8504877567852503e-05,0.009257150802265733,0.001791846006210888,0.008014641683276301,4.135672897827465e-08,0.0574124618599829,-1.0331403192913113,0.004528259005303222,-1.0410361205673364,-1.0266665568287359,-0.037467495760316966,95.97756912028406,-738.58,297.22,34.78963963963964,0.023814736764063402,34.75,34.83,2.7683591616518967e-05,3.159728087243792e-06,1.1586477167603609e-05,4.800111969435781e-05,0.010495211868908276,0.01017268395957466,-0.025423882982845373,0.03511076335464967,2.375386888841599e-05,2.711200473808762e-06,9.941761290599808e-06,4.1187296775342064e-05,0.03452330274965005,0.003940393677003921,0.01444911717381363,0.05986062829151361,0.012600830649832515,0.007402588212964049,5.33266539833442e-05,0.03511077012869453,0.18993781797625775,0.0006009126009125693,False,True,False
0,3.5846463395093364,0.04781945960623738,3.488746460762758,3.6489675863432556,0.005405205619617762,0.007914627531201078,0.00011124502860452247,0.028021613307051357,0.004094263044383726,0.022666715463773125,6.140061325869695e-08,0.21589287495010778,-1.0241376176862924,0.013138817398710909,-1.0420192914511666,-1.005660150144652,0.04707013574660648,172.06604268009963,-797.02,562.55,34.82745454545454,0.01758003264947471,34.81,34.87,1.7463350094244182e-05,7.158187753065264e-06,4.413896063848994e-06,3.917332756665982e-05,0.024616720871959704,0.016425584209227278,-0.03574534930474899,0.03992245736166367,1.4984404272300292e-05,6.142073460710809e-06,3.7873376345142126e-06,3.3612621506313634e-05,0.021777973417545,0.008926742106340306,0.00550442559002424,0.04885177711146513,0.02810924222048952,0.009243664720574779,0.0006481852009320588,0.039922460863406596,0.12669683257918554,0.00032838175957443513,False,True,False
0,3.6002992940389293,0.0540120883895013,3.485255168166271,3.710692980822211,0.012076099403145558,0.014349806611883351,6.672671019434578e-05,0.05259382520055837,0.009265806190941374,0.05457203559728247,3.9280026162269444e-08,0.5602618443724167,-1.026360557178092,0.012367655669673806,-1.0420098205365749,-1.0100006681342377,-0.5167947993216501,68.64056996975559,-207.91,274.52,34.879009009009,0.021614597548665883,34.83,34.91,1.3753525574092184e-05,4.753231017539205e-06,-8.827792127697988e-06,3.255248347088633e-05,0.035727009929131116,0.010157696938806799,-0.005477691965697388,0.06260281597740316,1.1801194287431927e-05,4.0785035392447335e-06,-7.574675269028425e-06,2.7931615054542318e-05,0.017151572449367904,0.0059275991255273155,-0.01100885118004848,0.04059513872642877,0.03587978404641535,0.009603495988424795,3.6538633284884e-05,0.0626028169272083,0.058790276992651214,0.0004455949455949649,False,True,False
0,3.5380614347150776,0.02537708323302157,3.507267839367702,3.5909323398196515,0.000960238700203034,0.001529053691463651,1.7874188275006655e-06,0.0055931080421588696,0.0009022548480580625,0.0060176155014533845,7.127387410121996e-08,0.060670695968223824,-1.0333886905975427,0.007836026885525552,-1.0437239632470747,-1.0162832707082365,0.45309389140271483,33.22093266375089,-168.12,73.49,34.88279279279279,0.012297166796475127,34.87,34.91,1.4199114175984816e-05,5.771032889316657e-07,9.379529135679113e-06,1.6552110239433728e-05,0.03937944696399789,0.00031667902856323126,0.03854969266719848,0.041296558737345224,1.2183530993382116e-05,4.951827078743832e-07,8.048092473342702e-06,1.4202516129428297e-05,0.017707251438497093,0.0007196866590720179,0.01169690437880151,0.020641595962590898,0.03937945141833619,0.0003166787315426215,0.03854969804173459,0.041296561297062426,0.1719457013574661,-2.0358020358035757e-05,False,True,False
0,3.4763985932088324,0.019260877054538036,3.403316653167061,3.511110035811373,0.0017468897058533779,0.0026337278764873504,6.743081034738763e-06,0.01093109948540235,0.001516204352439293,0.011529245582116258,5.509960199212571e-08,0.11720306764720846,-1.0521151076947242,0.00566751238673813,-1.0606551970101803,-1.043840542007567,-1.0410684002261166,76.09650114102084,-374.21,575.93,34.86481818181818,0.020261221522437086,34.83,34.89,1.2406593036933018e-05,4.443664658836371e-06,-5.517370079811242e-06,3.475943150281083e-05,0.03870945927309657,0.005026879207686552,0.011019544629779221,0.05092328845441411,1.0645460619184602e-05,3.8128805377659918e-06,-4.7341720431427655e-06,2.9825283871799426e-05,0.015471856883272317,0.00554154903236572,-0.006880531987530299,0.04334735152144089,0.0387094632875009,0.005026878282005487,0.011019550769124637,0.05092328908234927,0.054267947993216506,-0.0003477222009332019,False,True,False
0,3.4176669439556298,0.046766097647431754,3.341290820592009,3.529611359518511,0.0043129532659082195,0.0043997064656115335,0.00013003965586605627,0.018563142055924083,0.002986489160144569,0.0131684848809975,2.8448608413444987e-08,0.09782698257226369,-1.0715273418240678,0.009955873998508011,-1.0890289047552855,-1.0602030617561666,1.0670871040723975,59.58435218111857,-250.49,260.15,34.87135135135135,0.01851223116489891,34.84,34.91,3.095032408232576e-05,7.295010793177789e-06,5.517370079811242e-06,4.303548662252769e-05,0.0023771835496269413,0.017206797658863175,-0.023347024915031028,0.046116941172265453,2.655688432662971e-05,6.259474287914459e-06,4.7341720431427655e-06,3.6926541936513574e-05,0.03859713809158824,0.009097369649990156,0.006880531987530299,0.05366814950273634,0.014307230253037968,0.009838922059248996,6.32019602765561e-05,0.04611694504601962,0.1900452488687783,6.124956124954869e-05,False,True,False
0,3.37992325091175,0.04027464584488993,3.3010170540310533,3.477184428541653,0.01028118776465967,0.012823789522915553,1.3905221043826633e-05,0.04107605665341321,0.007903113027054633,0.03535830656903793,4.919084639620763e-08,0.23124950410199008,-1.0884780357545696,0.005175384058931926,-1.09552516408547,-1.0810312333061431,-0.03645927601810008,70.88113981248998,-291.9,230.58,34.894363636363636,0.01941943000926912,34.87,34.93,2.8554886710570605e-05,9.255294815129807e-06,-3.089727244694296e-05,4.193201260656545e-05,0.009262597257443857,0.014104512339956505,-0.03026431563601075,0.08742218833751692,2.4501482482559352e-05,7.941493380181366e-06,-2.651136344159949e-05,3.5979707527885024e-05,0.03560986639835959,0.011541975816076234,-0.03853097913016968,0.05229204310523028,0.011120887023174514,0.01268926777779219,5.628924587130778e-05,0.08742219886024132,0.08144796380090498,0.00046236728805534963,False,True,False
0,3.322027299267007,0.026455821751473544,3.2751633332345254,3.3596488162895826,0.0006671898794809875,0.0008488094462954479,9.942317651542374e-06,0.0031921404521285173,0.0005126025764638908,0.003468290545391156,6.979820925791594e-08,0.03469700600379038,-1.0958652905282078,0.00716395354729834,-1.108492531725663,-1.0875048111647843,-0.009061616732617185,68.05141383726102,-522.93,216.5,34.9163063063063,0.014265529205232674,34.89,34.95,3.1856110320699985e-05,1.6316572283394208e-06,1.8759058271358226e-05,4.027680158262207e-05,0.009167538449891995,0.009009420085906505,-0.024731819740443313,0.019303584979750606,2.7334093001187463e-05,1.400041310018589e-06,1.6096184946685404e-05,3.455945591494219e-05,0.03972671451964105,0.002034786427206365,0.02339380875760302,0.050227883508971186,0.010594295476147427,0.007276275715148925,5.33266539833442e-05,0.024731854457204855,0.18993781797625775,0.00022358722358723098,False,True,False
0,3.2666862660955713,0.023054975306339286,3.2274265711524737,3.3449223925138467,0.005210499641801234,0.00720073388417906,6.760166576858102e-07,0.027312428837984248,0.004019540747209375,0.02251203374279467,3.371116258366058e-08,0.19166016981936945,-1.1164036223012845,0.0037881829035270537,-1.1209805682017582,-1.1086003607250436,0.035531674208145014,79.67337864059061,-451.38,371.61,34.948727272727275,0.01697862071256371,34.91,34.99,2.592602214313113e-05,9.430991016409248e-06,-1.9310795279339348e-05,4.248374961454656e-05,0.013629795968254541,0.015556438246177801,-0.017160561191727302,0.05433347912081154,2.2245788744356037e-05,8.092249271512113e-06,-1.656960215099968e-05,3.64531247321993e-05,0.032331495274889266,0.011761080809126136,-0.02408186195635605,0.05298009630398331,0.014345095726907751,0.014898691168703447,5.826430712995015e-05,0.054333484743398344,0.08144796380090498,0.0002698645267452721,False,True,False
0,3.241137989924516,0.02872474183551693,3.196367014447953,3.2918430564574,0.0036663506704446343,0.005115510243185927,5.043027783197047e-06,0.015102109300749046,0.0029627605620230523,0.013251482044495805,3.80385694600735e-08,0.11740073877576666,-1.1222747616498467,0.0032936258165285662,-1.1267301924754904,-1.1172931922784177,-1.1740531373657448,60.0829708956791,-320.39,195.96,34.96117117117117,0.014568879581224497,34.93,35.0,2.339577120381498e-05,8.998842296792282e-06,5.517370079811242e-06,3.420769449482971e-05,0.019313288295476384,0.012996266104432802,0.0041637412447512595,0.04129789541856156,2.0074710298326536e-05,7.721444638635177e-06,4.7341720431427655e-06,2.935186666748515e-05,0.029176101985585214,0.011222162258134803,0.006880531987530299,0.04265929832268786,0.01931335208368518,0.012996213216736673,0.0041639195255542385,0.041297898515719106,0.10853589598643301,-0.00018796068796067935,False,True,False
0,3.1402198133158348,0.04008356500834166,3.0835867652548625,3.225370486846148,0.0029603977375925665,0.0024429111403877846,8.453062853069993e-05,0.008642966109803807,0.0022303473047208654,0.00911095700295767,3.9927828023034184e-08,0.0650591114626671,-1.1509567608314593,0.011660307911468505,-1.1604716028621793,-1.1213839537676353,0.34178733031674213,57.37139234614377,-398.04,237.81,34.96381818181818,0.01707951281892326,34.93,34.99,2.6980813481918575e-05,5.0062015324283866e-06,1.3793425199528107e-05,5.4070226782150183e-05,0.015704573363170694,0.01386499034138597,-0.026118619587680116,0.046853114894806834,2.3150851046721563e-05,4.295564552373068e-06,1.1835430107856916e-05,4.6394886022799105e-05,0.03364689109603477,0.006243070390716867,0.01720132996882575,0.06742921347779694,0.016892403356568764,0.012388532974664633,5.5301715241986593e-05,0.046853169064865224,0.17647058823529413,0.0002618398214728407,False,True,False
0,10.506044798679673,0.24888957560843963,10.123873215132694,11.337873011587122,0.1317363162557325,0.06981849112717282,0.02373759948274613,0.3678062012442662,0.12590637113897923,0.2980165993590862,3.07409355748689e-08,1.6597515546127504,0.859494505478104,0.013267953199723919,0.8062169092377449,0.8793803630691457,-2.5615262860373105,170.0218482870781,-597.33,447.69,34.5063963963964,0.02869250116771989,34.45,34.55,2.6224028817760463e-05,9.424368194351491e-06,-4.744938268637668e-05,7.007060001360278e-05,0.009935844947183014,0.021312425994892324,-0.03087751468664859,0.08739411803197371,2.250149297432286e-05,8.086566567872694e-06,-4.071387957102778e-05,6.012398494791312e-05,0.032703129663669436,0.011752821704089322,-0.059172575092760575,0.0873827562416348,0.01931903624681985,0.013394259203939296,3.851369454352637e-05,0.08739411890587324,0.06331260599208592,-0.000781502281502274,False,False,True
0,11.093103534300745,0.22622054886576098,10.763056355451921,11.886863125772754,0.1386066041353722,0.0937317023973929,0.023455604028689236,0.40809735607737974,0.09176206427200323,0.21933216569310124,2.5941178982691326e-08,1.6191708877801032,1.022143544682898,0.07292123651380684,0.8812520643746286,1.1046401050865413,4.364490950226242,154.41285527292771,-706.84,555.9,34.45127272727272,0.022872165324302453,34.41,34.49,3.284645194459573e-05,5.346518358919446e-06,8.276055119716864e-06,7.007060001360278e-05,-0.005257598766433134,0.013150790304296707,-0.041947853202648835,0.06817340728763635,2.8183854311592122e-05,4.587572951751666e-06,7.101258064714148e-06,6.012398494791312e-05,0.04096173720675985,0.006667468387714494,0.010320797981295449,0.0873827562416348,0.01065085290308005,0.009330043996757732,4.147628643148994e-05,0.06817343463965331,0.06787330316742082,-0.0005006875098618073,False,False,True
0,11.800199712023723,0.27364621608419576,11.252408296447515,12.351221804877452,0.2848693222082493,0.08633729410902793,0.16376235280145804,0.5061941439315056,0.2254836990668764,0.45855443081561026,2.5874118847468708e-08,2.27137905294539,1.0824215923128127,0.04001959471204806,1.0164070072006721,1.1624473618476192,1.6144884115319362,202.9310559762022,-704.59,667.78,34.399009009009006,0.03572508553218148,34.33,34.45,2.983311905485267e-05,8.431299663432517e-06,-1.1034740159622485e-06,7.007060001360278e-05,0.001925170957130751,0.016642098709291037,-0.034387956444271735,0.07026630553004681,2.5598268041875687e-05,7.234465438531322e-06,-9.468344086285532e-07,6.012398494791312e-05,0.037203908198185615,0.01051439838030324,-0.00137610639750606,0.0873827562416348,0.01281091720557388,0.010787313610975121,3.160098013827805e-05,0.0702663661905498,0.11305822498586772,-0.0009377851877851718,False,False,True
0,12.29892560467513,0.22476361658026733,11.649888210736734,12.71259473546923,0.2563655840438074,0.08077961259497458,0.08684442444390698,0.37089356571037213,0.19181603096371483,0.3771495878657913,2.1679638528837586e-08,2.7123194946333307,1.2552473385926373,0.04530114414777166,1.1676856750647822,1.3179446979398404,-4.715045248868775,209.52798252231955,-727.81,740.3,34.30109090909091,0.029718725896153243,34.25,34.37,3.260927992759027e-05,6.10746015483111e-06,-2.758685039905621e-06,7.007060001360278e-05,-0.003119005756543744,0.009372569170529846,-0.04741351503739914,0.0585694011512453,2.7980349178515847e-05,5.240498045510663e-06,-2.3670860215713828e-06,6.012398494791312e-05,0.040665967732182756,0.007616414043286338,-0.0034402659937651497,0.0873827562416348,0.007328381465221427,0.006619681558330547,2.172567384506616e-05,0.05856947392625314,0.07692307692307693,-0.0007426008159952946,False,False,True
0,12.750365839316858,0.28635898087525524,12.206335881367536,13.42094259030714,0.22788859842051604,0.12695506561377815,0.04572044460037266,0.5044599271265621,0.17654631746636842,0.39612748827609107,3.578052298891521e-08,2.124144566209634,1.4148424490484637,0.08884289234511694,1.277105937315437,1.5602234851807124,-0.08833239118146063,173.5779269667647,-584.7,415.75,34.211531531531534,0.031106801308285095,34.16,34.27,3.196521085900134e-05,6.5525474900972195e-06,0.0,7.007060001360278e-05,4.49403995398778e-05,0.010937111333714639,-0.0439892892182301,0.0440380780826266,2.742770657266204e-05,5.62240464030008e-06,0.0,6.012398494791312e-05,0.03986277023690859,0.008171467919180749,0.0,0.0873827562416348,0.008308098562868054,0.0071078613599543155,2.468826573302973e-05,0.04403807817864125,0.11305822498586772,-0.0008264303264303429,False,False,True
0,13.066382527174449,0.17654471798570562,12.609598216341588,13.467503343843266,0.19014168358715094,0.10962927831465191,0.03869554386819846,0.4334021708768472,0.15736816770808718,0.2558984185398398,2.6828263832712196e-08,1.0874813303469666,1.5441194901921542,0.07655741145584145,1.3290738172647523,1.612922937322452,2.846555429864254,154.07333006496492,-533.65,462.91,34.12809090909091,0.029938636157074563,34.07,34.18,3.1485833531248615e-05,6.587776596985646e-06,4.413896063848994e-06,6.896712599764052e-05,0.005999451615282664,0.013529671139981363,-0.03503858256896717,0.08746629881765622,2.7016377495522976e-05,5.6526329285105e-06,3.7873376345142126e-06,5.917715053928457e-05,0.03926495443155441,0.008215400987532444,0.00550442559002424,0.08600664984412874,0.010182068068884692,0.01073760029973703,5.2339123354023015e-05,0.08746634602668128,0.08144796380090498,-0.0008177535333498048,False,False,True
0,13.42561719805042,0.3068881163014716,12.407697514964402,13.948293657531982,0.26461307582011107,0.14631041878471665,0.05480094357643045,0.5450062142423413,0.18850720560013554,0.43227878889071847,1.776272640086063e-08,3.472382990843294,1.574164499459762,0.20530803814624685,1.2774066096472525,1.8144011231457808,-3.0192703619909476,110.04928753422475,-417.93,397.16,34.050000000000004,0.029480347845487517,33.99,34.09,2.947049552358906e-05,6.646062303345231e-06,-1.3793425199528107e-05,7.007060001360278e-05,0.008889324482638405,0.016207668268148623,-0.0350519493811306,0.08053163124086404,2.528711940419854e-05,5.702644901166106e-06,-1.1835430107856916e-05,6.012398494791312e-05,0.036751692238371686,0.008288087187881842,-0.01720132996882575,0.0873827562416348,0.01456335131120935,0.011378412981173923,5.33266539833442e-05,0.08053163759394973,0.1085972850678733,-0.0007800982800982973,False,False,True
0,13.693708567542851,0.16690580989005938,13.35279682065073,14.144194435549217,0.1556953600957683,0.07680837254443959,0.02845192135869709,0.30976840838620784,0.11260666436657722,0.2660092343904498,2.503005269716141e-08,1.568120319985435,1.76074648546587,0.0949430779269139,1.6169977239743665,1.9048597013303448,-0.9244375353306961,131.54967755039016,-480.71,482.95,33.965272727272726,0.021405182040379993,33.93,34.0,3.12193270805609e-05,4.935333093360898e-06,7.72431811173574e-06,6.620844095773491e-05,0.010645044558627852,0.011971374826152967,-0.03711276727434882,0.0392658161714947,2.6787701990724115e-05,4.23475598268837e-06,6.627840860399872e-06,5.6810064517713187e-05,0.03893260294301647,0.006154692675454584,0.00963274478254242,0.08256638385036359,0.0134846464933204,0.008644028957994316,5.826430712995015e-05,0.039265849149709396,0.06331260599208592,-0.0005803034059914651,False,False,True
0,13.96114794932546,0.18588284661119792,13.39330048568892,14.333617020997163,0.2875955774504133,0.15561494837167703,0.040883363677719387,0.5382026056106425,0.22503230492910734,0.46732379300796784,1.8685268443618952e-08,3.00837236735509,1.7068339868417026,0.1389488426251394,1.484051803467477,1.892076469271539,0.09961538461538609,178.46733517120649,-726.74,721.52,33.84945945945946,0.043606459860016725,33.79,33.93,2.9779443282583008e-05,8.43518102728036e-06,-2.869032441501846e-05,7.007060001360278e-05,0.004495187003499758,0.018514373721028064,-0.03643340250350202,0.07152277895869022,2.5552211617021583e-05,7.237795837607679e-06,-2.461769462434238e-05,6.012398494791312e-05,0.03713697089604448,0.010519238702363211,-0.03577876633515756,0.0873827562416348,0.014800829589075653,0.01198752025597594,5.628924587130778e-05,0.0715227889496716,0.12669683257918554,-0.0012518427518427321,False,False,True
0,14.239353736408349,0.27210115000929913,13.11246274357432,14.784143799524578,0.5827897242546903,0.2414067101771305,0.18928221860224675,0.9990758807213489,0.4654493294410065,0.8207727733854654,1.3631627382437728e-08,6.426605922762915,1.4921814069949366,0.21902627848799722,1.2059884159381886,1.8327876914453802,2.494923685698133,87.12844992362878,-437.74,374.98,33.73027272727273,0.034467351681602615,33.68,33.79,3.269587274979668e-05,3.992897466777829e-06,9.931266143660237e-06,6.124280788590479e-05,0.00310124815806212,0.009767590245814839,-0.016460477862027187,0.04474952320266563,2.8054650034194616e-05,3.426100349426238e-06,8.521509677656977e-06,5.2549309678884696e-05,0.0407739548119804,0.004979411992612512,0.01238495757755454,0.07637390506158633,0.007002078988142356,0.007480090377702469,5.727677650062896e-05,0.04474953218494648,0.07687959299039004,-0.0008934923246849772,False,False,True
0,14.678267305309406,0.3246737989555475,13.740627601400925,15.15595570604276,0.28182053236105364,0.1477763394502769,0.00876497998251436,0.4882185272321266,0.18594611656480434,0.3543469056293753,1.899324519882839e-08,2.4184592909043863,1.920689855711418,0.20163300284967248,1.6332566264711716,2.29927086295338,1.2365101809954755,165.5360693925371,-771.55,625.6,33.64054054054054,0.03579837065458807,33.57,33.71,3.1147551338572404e-05,4.162215318440893e-06,-5.517370079811242e-06,6.786365198167829e-05,-0.006010755508437791,0.009016553974922091,-0.027491384282145318,0.06537641567187676,2.6726114910977345e-05,3.5713833063700463e-06,-4.7341720431427655e-06,5.823031613065602e-05,0.038843093759920774,0.005190562754220926,-0.006880531987530299,0.08463054344662269,0.008365497368720082,0.0068854382345567905,5.431418461266541e-05,0.06537641684009128,0.1085972850678733,-0.001057125307125275,False,False,True
0,15.17544817503667,0.25071259605284485,14.667663361021138,15.679393605350791,0.19988707540876974,0.11001196481478646,0.005443628030387116,0.4062557344019564,0.16502955089675533,0.33694451405899695,2.340737825790029e-08,1.6718169664394327,2.1470339829951586,0.10484342067903092,1.9921505636520094,2.3018130247108166,-0.7590441176470581,80.60236948889194,-319.43,321.1,33.51290909090909,0.02397802719484571,33.47,33.57,3.0869186287034415e-05,3.2451440483739233e-06,1.434516220750923e-05,5.462196379013129e-05,0.006555218263006128,0.009629310533061833,-0.032320455144971776,0.029617031214356167,2.6487264149524667e-05,2.784491525409613e-06,1.230884731217119e-05,4.686830322711338e-05,0.03849595379765397,0.004046913131798518,0.01788938316757878,0.06811726667654996,0.008094544892557608,0.008375499186827663,5.727677650062896e-05,0.032320461105652946,0.0904977375565611,-0.0005716475441245837,False,False,True
0,15.423871339370717,0.12571830934511338,15.172501802505296,15.638720613818265,0.1831508845725603,0.09786337024310385,0.015333477023228233,0.32275030771661206,0.1334011264727897,0.31556618640632134,5.017729343137489e-08,1.4984370307022639,2.2357363066802973,0.09992149921366912,2.121822962958264,2.4169661137717013,-0.8281288863764844,39.35049258652785,-223.68,125.12,33.46693693693694,0.021607776074737968,33.41,33.49,2.809115300363625e-05,2.312779219370271e-06,1.7103847247414853e-05,3.365595748684858e-05,0.017608183086806832,0.004933018923316821,0.00416908796961663,0.02686548675995222,2.410357639341285e-05,1.984477126587614e-06,1.4675933333742575e-05,2.8878449463170872e-05,0.03503155924148911,0.0028841914116293833,0.02132964916134393,0.04197124512393483,0.017608229684761223,0.00493299237385991,0.00416932382847865,0.026865508489300402,0.11305822498586772,-0.0005549315549315654,False,False,True
0,15.272768871164768,0.4286781768953017,13.733940141072354,15.801388699904228,1.0325817002784463,0.49249475286595856,0.04148429500592955,1.7322161230166202,0.8145367788736011,1.5128066251629981,2.7080155007297435e-08,8.278454890590199,1.3426854306632046,0.5109018415407253,0.7129042330011629,2.3462172844058564,-0.5932635746606352,130.67657550307842,-497.14,354.09,33.37436363636363,0.031288162686072506,33.33,33.43,3.0131456486770062e-05,2.9860623941416187e-06,1.4896899215490354e-05,4.027680158262207e-05,0.006034393019379564,0.013931392142291029,-0.03229639488307761,0.030308426116150058,2.585425607769268e-05,2.5621868573131564e-06,1.2782264516485466e-05,3.455945591494219e-05,0.037575955063574695,0.0037238208643701524,0.018577436366331808,0.050227883508971186,0.013378069537746501,0.007166937065132682,5.33266539833442e-05,0.0322964273598384,0.0995475113122172,-0.0008125690327524811,False,False,True
0,15.638741052316073,0.20271523472225317,14.985380978250587,15.834925417453887,0.31171345627631625,0.19983188972929217,0.07507256061258914,0.6860910394937569,0.2636681296749958,0.4148868097385262,1.8455420303098435e-08,2.8126557425673315,2.169483435249929,0.1946836836440888,1.8204086222631533,2.431113380093395,1.460989259468627,70.36429482231793,-332.71,280.5,33.314144144144144,0.021425068938828885,33.27,33.34,3.190723171578976e-05,1.989365949768467e-06,2.04142692953016e-05,4.08285385906032e-05,-0.0009370633809139491,0.009289216463981854,-0.012338842075590719,0.02548403363758079,2.7377957646106975e-05,1.7069728016678984e-06,1.7516436559628233e-05,3.5032873119256466e-05,0.0397904663414464,0.0024808732882304345,0.02545796835386211,0.05091593670772422,0.007597499239786103,0.0054206188787622855,5.431418461266541e-05,0.025484049410307644,0.09044657998869417,-0.0005510705510705406,False,False,True
0,15.584613743211095,0.2669322356626601,14.358135581278502,15.931444424918922,0.583524336865655,0.33029414593257156,0.04993837742701156,1.0357356195428085,0.4144526344486924,0.848064134655979,2.1050217569040797e-08,4.754175719817711,1.8821908810272352,0.332688076428123,1.5275395543159527,2.452946008472094,-0.48563348416289664,93.87962096923887,-456.36,452.32,33.270180180180176,0.01606701771173035,33.25,33.31,2.7846491343988507e-05,6.713871165190892e-06,3.86215905586787e-06,7.007060001360278e-05,0.014950631491714921,0.013071452087635205,-0.03505796444660413,0.08743154510603131,2.389364478244996e-05,5.760828204693578e-06,3.313920430199936e-06,6.012398494791312e-05,0.03472644967824116,0.008372649404339695,0.00481637239127121,0.0873827562416348,0.017344718343022734,0.009667411788761737,5.727677650062896e-05,0.08743156121335548,0.12217194570135748,-0.00012214812214812864,False,False,True
0,15.507747681132203,0.36035221691147623,14.223490926454337,15.916206396079634,0.6806031463806168,0.2324802819392137,0.15940757218727147,1.1187567829322134,0.6000578419975364,0.9365120070980553,1.9278481033779826e-08,4.438486255236606,1.7627427651776075,0.2580276143817683,1.3991432345873875,2.372111553528284,-0.42162238552854636,99.4887903308475,-446.27,336.63,33.26890909090909,0.012946286672846016,33.25,33.29,3.07861760810825e-05,2.3035705901504094e-06,2.04142692953016e-05,3.8621590558678696e-05,0.005929331768551011,0.009910060137381247,-0.02404643990412297,0.021363066191752496,2.641603735294797e-05,1.9765756745592543e-06,1.7516436559628233e-05,3.313920430199936e-05,0.03839243448155198,0.002872707630952715,0.02545796835386211,0.0481637239127121,0.009341050541273214,0.006786287437945549,5.33266539833442e-05,0.02404647077482778,0.06783493499152063,-0.0001500349390257625,False,False,True
0,15.421242885199112,0.2637633332754342,14.456911483564241,15.800681864501447,0.5081178390090099,0.29209223112738625,0.12446460903585728,1.123288886417307,0.32897882257597794,0.5564429461678294,1.86363173781956e-08,2.6236167457207706,1.910199369798301,0.28076976011030264,1.4011336756968082,2.2140932892379634,3.26079751131222,98.33143987503617,-474.89,301.24,33.22693693693694,0.027528259621797724,33.18,33.27,3.074997614164483e-05,3.459874576250027e-06,1.6552110239433728e-05,3.751811654271645e-05,0.003513318315287801,0.012223662140283769,-0.026111267840990233,0.029614357851923484,2.6384976043162648e-05,2.9687407686496308e-06,1.4202516129428297e-05,3.219236989337081e-05,0.03834729071964285,0.00431469655839102,0.020641595962590898,0.04678761751520604,0.008164482026822795,0.009748984921986536,5.727677650062896e-05,0.029614373593275022,0.06787330316742082,-0.0007118287118287086,False,False,True
0,14.772833533736213,0.7416876776064688,13.346256549907975,15.722013906576574,0.7327835545429362,0.2686603683556642,0.12299560613094887,1.1829337310160088,0.542353707019613,0.9388066529717967,1.5713716550180834e-08,6.093456708582343,1.4969744058200185,0.24670938826275524,1.1990813966704543,1.9977436257118313,-2.28575226244344,105.75868333010177,-585.71,351.41,33.16836363636363,0.017532526664537758,33.13,33.21,3.231905627520201e-05,1.1309026221177698e-06,1.4896899215490354e-05,3.8621590558678696e-05,-0.003424466879048255,0.0038182400422053443,-0.01510107997972541,0.03786097112783728,2.7731323160409354e-05,9.703694875820184e-07,1.2782264516485466e-05,3.313920430199936e-05,0.0403040392961871,0.001410311716217052,0.018577436366331808,0.0481637239127121,0.004501067060962522,0.002457331953831395,5.5301715241986593e-05,0.03786097621624172,0.06334841628959277,-0.00026220048238398766,False,False,True
0,14.925003805606634,0.528037279234057,13.497484597082538,15.6945346939957,0.8560415401978848,0.3856373316869976,0.1510399847299281,1.4439364582047745,0.7050825488266682,1.1141597049476637,1.8513887312110455e-08,5.6319206687279895,1.4183256190198648,0.41511936107046915,0.9140582813949912,2.046934437858346,-0.6355737704918005,118.96756889211879,-582.37,485.96,33.1563063063063,0.01052511523823105,33.13,33.18,3.167157455305884e-05,1.6974250359992894e-06,1.7103847247414853e-05,4.08285385906032e-05,0.003036255563805652,0.008805797486221718,-0.021981611967255708,0.021363066191752496,2.7175752331721894e-05,1.4564732897223676e-06,1.4675933333742575e-05,3.5032873119256466e-05,0.0394965859921485,0.0021168033116653736,0.02132964916134393,0.05091593670772422,0.007864846150828608,0.0049847082918261214,5.036406209538064e-05,0.021981647024155605,0.07235726399095534,-0.00016804141804141115,False,False,True
0,14.826029400093926,0.1411903773294329,14.567387149061624,15.257349436223969,0.1670056946022011,0.17002258162062023,0.026919163284007352,0.758228891428528,0.08488490960685184,0.2140028307380403,3.490811195661081e-08,1.7927086917738504,2.078298783456141,0.1481103357633278,1.5447341125095895,2.228265468677517,-1.1024490950226244,86.96857427827102,-367.54,492.57,33.097818181818184,0.02585711685545703,33.05,33.15,2.8674096855960193e-05,5.3373925121012245e-06,-2.1517743311263846e-05,5.738064883003692e-05,0.016092681501916704,0.009437416047159593,-0.047461635561187474,0.0654338929641795,2.4603770588921376e-05,4.579742531052696e-06,-1.8463270968256787e-05,4.923538924868476e-05,0.035758529476370704,0.006656087842266612,-0.02683407475136817,0.07155753267031512,0.016946674094493824,0.00779865253434903,0.0007598510074694013,0.0654339358108836,0.05429864253393665,-0.0007275432229560761,False,False,True
0,14.545554317198084,0.16719368098266166,13.946507865333942,14.793225263547452,0.25519645068957536,0.09965102915387403,0.09890531698329612,0.42784024871648274,0.19818855558236045,0.35686927285868986,2.027388301684141e-08,3.0677712427414927,1.9083263754640236,0.08513131216782803,1.7798027910104528,2.1262374830603648,1.6441888072357267,87.56499920957533,-289.24,410.75,33.045675675675675,0.02286806513346504,33.0,33.09,2.8806413875973767e-05,7.73049410311778e-06,-7.06223370215839e-05,7.007060001360278e-05,0.013603708151913021,0.009504201282588956,-0.017223385208895405,0.08742753506238228,2.4717305031584976e-05,6.633140161573547e-06,-6.05974021522274e-05,6.012398494791312e-05,0.03592353770955582,0.009640446659640409,-0.08807080944038784,0.0873827562416348,0.013920882727177123,0.009032795850705478,0.00068805319875303,0.08742754863136253,0.11758055398530243,-0.0004931554931554876,False,False,True
0,14.524393152126938,0.13360219107442334,13.952130903848303,14.749856881849986,0.11884324410320954,0.07789706706010188,0.015560789038010036,0.27425380999987553,0.09234744252160641,0.21078920048865848,3.215434674075368e-08,1.595386654713761,2.0393924607291054,0.0867439908545403,1.9017025047462413,2.1498014227428914,-2.3401131221719447,98.55642965739132,-753.89,279.7,33.022,0.02187537679885068,32.99,33.05,2.511089936889657e-05,4.864626021048698e-06,1.0483003151641362e-05,4.193201260656545e-05,0.021107884581358153,0.010003876078391106,-0.004078193646905331,0.034432735265019214,2.154637373436232e-05,4.1740858735329695e-06,8.994926881971256e-06,3.5979707527885024e-05,0.031314982291211144,0.0060665161954013645,0.01307301077630757,0.05229204310523028,0.021121628579103807,0.009974849075639078,0.0006396501109542622,0.0344327508067463,0.15384615384615385,0.00032387349818540365,False,False,True
0,14.294025769300532,0.2521902686244625,13.67744837641327,14.843220250581089,0.15937507066813966,0.09285677309493451,0.027930674596483938,0.3894607310730113,0.11747156861199654,0.35126074550646896,2.7107637468049006e-08,2.266074474803187,1.9315962795329624,0.07762740017665871,1.8015923697018639,2.051231233502048,0.3290276992651211,173.1735012678377,-745.34,544.99,33.038648648648646,0.009953207476301278,33.03,33.05,2.8061905314402672e-05,6.77355436987218e-06,-2.0966006303282724e-05,7.007060001360278e-05,0.010371117150367565,0.016782204534362976,-0.032285033092738696,0.08746763549887256,2.4078480452648832e-05,5.812039298921463e-06,-1.7989853763942512e-05,6.012398494791312e-05,0.034995085403696474,0.008447078379193233,-0.02614602155261514,0.0873827562416348,0.016754709572314726,0.010406139196383403,1.3825428810496648e-05,0.08746768422992678,0.07235726399095534,6.598806598805286e-05,False,False,True
0,3.656866073889841,0.0709066247161517,3.5919909187628694,3.877679725108182,0.010690235719582868,0.016470864597427085,9.461398853088304e-05,0.06423978535621991,0.008731124305340834,0.035323363858643764,5.321845601008457e-08,0.21943053909966292,-1.0084812432413917,0.006713943975728988,-1.0176394782675937,-0.9987419808242286,-0.4220633126059918,67.43368359536896,-590.54,315.53,34.99297297297298,0.01092075543462542,34.97,35.03,1.3793425199528105e-05,3.3921122638540695e-06,6.620844095773492e-06,2.0966006303282724e-05,0.03273927470991195,0.0012996819928766644,0.028912269500398855,0.03854300926111676,1.1835430107856914e-05,2.9105974068154313e-06,5.681006451771319e-06,1.7989853763942512e-05,0.01720132996882575,0.0042301923922312325,0.00825663838503636,0.02614602155261514,0.03273928000763568,0.0012996833039547106,0.028912273531300933,0.03854301148261131,0.16732617297908423,-3.948753948753474e-06,True,False,False
0,3.6326173905827037,0.11563643823902456,3.5480782192722096,3.982899775963722,0.024438750752691158,0.03854545356765327,0.0002566108183185738,0.13931954964232282,0.021721510044815588,0.06115450460421114,4.8870792083294257e-08,0.4048046051642211,-1.029475911667822,0.007320253671585689,-1.0447629964435254,-1.0181772505451558,0.45652714932126703,17.415172162100358,-65.5,41.89,34.99063636363637,0.0096998319031378,34.97,35.0,1.8544355182279598e-05,8.504887144963241e-07,1.3241688191546983e-05,1.9862532287320473e-05,0.03351835649828804,0.00041346216283647447,0.03304660375839058,0.03511276837647418,1.591195924726899e-05,7.297607078977517e-07,1.1362012903542639e-05,1.7043019355313955e-05,0.02312605954903849,0.0010606166924596952,0.01651327677007272,0.02476991515510908,0.03351836543015558,0.00041346164817713225,0.03304661095555628,0.03511277657260025,0.17647058823529413,-7.434123030453979e-05,True,False,False
0,5.086524972612034,0.844176953749927,3.754949919146593,7.068982809596277,0.14343477938311675,0.11949091094148277,0.011275901474252684,0.45018241395476827,0.13428778950499118,0.3289276517638863,2.6239736050648332e-08,1.551392601448411,-0.7259744624831012,0.16845107305206983,-1.0262945067745761,-0.45304537181592186,-0.0071735443753537876,149.6430767437839,-783.79,559.04,34.98963963963964,0.01606395897812237,34.97,35.03,2.398870124632863e-05,3.6926592709392897e-06,7.72431811173574e-06,4.303548662252769e-05,0.005809794998205676,0.012846727848151364,-0.015109100067023465,0.048869153967277576,2.0583473131017216e-05,3.168481365660142e-06,6.627840860399872e-06,3.6926541936513574e-05,0.02991552567202795,0.0046049947466306855,0.00963274478254242,0.05366814950273634,0.0071001502181397376,0.012180400627516427,3.357604139692043e-05,0.04886915762286969,0.06331260599208592,0.0002781677781677904,True,False,False
0,7.127645392845977,0.552361315556744,6.231386835272899,8.220470807964436,0.19460557201138037,0.09965259393421651,0.054547214649576015,0.4102352040601998,0.13047637655908828,0.3575752582892683,2.197741366671835e-08,2.2676347302140947,-0.1846794835386437,0.13414019144609418,-0.44744165588882606,0.028685043779317465,-0.17662330316742061,31.8722342927536,-152.47,98.78,34.99545454545454,0.009543369246784847,34.97,35.03,2.0533479440691183e-05,9.456148969893718e-07,1.3241688191546983e-05,2.427642835116947e-05,0.0322014784775096,0.0005531128456872285,0.0296070061052336,0.03442404683711298,1.7618724665990256e-05,8.113836019967627e-07,1.1362012903542639e-05,2.083035698982817e-05,0.02560663143187323,0.001179245447106773,0.01651327677007272,0.03027434074513332,0.03220148987491855,0.0005531124538626365,0.02960701468300966,0.034424054698222656,0.09502262443438915,-4.363997024547845e-05,True,False,False
0,7.543569844914639,0.18287880200423554,7.303658906586362,8.075584930550834,0.07451108200675458,0.054799583232219194,0.012845075309298341,0.22447303001066324,0.05263456500418914,0.1805841917874073,2.4934493136896663e-08,1.2453201380247538,0.05619527939454439,0.02214397710734065,0.02291111417904179,0.09085652603314259,0.15460146975692443,105.97416658798558,-686.21,483.51,34.991441441441445,0.013937969517364842,34.95,35.03,1.660011447628632e-05,1.0132153441051205e-05,-8.276055119716864e-06,4.800111969435781e-05,0.00542657384124559,0.026262667532156732,-0.035748022667181675,0.03236389728450292,1.424370610087711e-05,8.693880755430207e-06,-7.101258064714148e-06,4.1187296775342064e-05,0.02070146047818862,0.01263547756363355,-0.010320797981295449,0.05986062829151361,0.025552828346069686,0.008094671971137193,4.147628643148994e-05,0.03574803830979882,0.08140192198982475,-6.107406107405179e-05,True,False,False
0,7.289832692069766,0.1756072704928786,6.952165337378161,7.59558055198074,0.028470090087575117,0.02113493932281961,0.0015675190384821544,0.07623768184294014,0.017829512632642687,0.06315350535985485,2.6202880976100573e-08,0.491213462652626,0.028573144149912962,0.04092236093224996,-0.04274778224209763,0.07986838477661523,-0.060469457013574576,77.68172400235909,-587.72,300.81,35.01145454545455,0.020580402347880833,34.97,35.05,1.236727241306106e-05,5.779889839427547e-06,-6.069107087792367e-06,2.5379902367131716e-05,0.01233066621382365,0.02609868606360407,-0.024764568430243706,0.044746181499624775,1.0611721610279854e-05,4.959426772981477e-06,-5.2075892474570424e-06,2.177719139845672e-05,0.015422821417750327,0.007207911803868547,-0.00756858518628333,0.03165044714263938,0.028310090695195984,0.005566899214359082,0.0006651481581526575,0.04474618832690444,0.08144796380090498,0.0003889727926425122,True,False,False
0,6.755568752614173,0.16984525460228483,6.4700325291066525,7.110571363462429,0.015313396219450071,0.015468676747255274,0.0003193695913782169,0.06185471869159348,0.020555901860799926,0.07341043883151054,5.1431780733607324e-08,0.4881981646205375,-0.11332476654964112,0.04055988526196715,-0.17976663637944146,-0.04397888110535217,-0.2125622171945703,31.02389888146082,-166.91,114.78,35.02207207207207,0.01968465563543436,34.99,35.05,2.146032271767305e-05,1.1866352480053973e-06,1.434516220750923e-05,2.372469134318834e-05,0.0311113675059614,0.0007320682505403051,0.029611684489490794,0.03443073024319469,1.8414001304459372e-05,1.01819079294154e-06,1.230884731217119e-05,2.035693978551389e-05,0.02676246740489161,0.0014798140533127723,0.01788938316757878,0.029586287546380288,0.0311113804190554,0.0007320672759981383,0.029611697376432315,0.03443074378255463,0.1900452488687783,-0.0003710073710073578,True,False,False
0,6.624399675025752,0.10921522111795383,6.458795674172237,6.876956926345282,0.033311867065108046,0.02986262121212699,0.0013541138325754143,0.11797345832442312,0.017907911557722467,0.054604651692568396,6.178158579173143e-08,0.4002651192983636,-0.1696167324581306,0.013860669827811156,-0.20174720215199554,-0.15112232865451994,0.7525211984171865,111.62462457906966,-590.66,385.94,34.99490909090909,0.00687308999929747,34.97,35.0,1.8616755061154947e-05,5.734275954681722e-06,-1.7655584255395975e-05,4.08285385906032e-05,0.027615508159111086,0.017560113460618327,-0.04815637216602221,0.053688199720981475,1.597408186683964e-05,4.920287839971891e-06,-1.514935053805685e-05,3.5032873119256466e-05,0.02321634707285676,0.007151028218296215,-0.02201770236009696,0.05091593670772422,0.032210245422880736,0.005758760151618675,5.628924587130778e-05,0.0536882041510406,0.07687959299039004,-6.4918964001599335e-06,True,False,False
0,6.15175950195401,0.14223015205797646,5.975172103593582,6.4521219304779684,0.004087952236111352,0.005959327656271713,3.2998277684719496e-05,0.017937493178119615,0.0028675907224327483,0.014711922220407495,3.596314902820641e-08,0.13332875325126803,-0.27749160733967676,0.038200097962200606,-0.32933834218204944,-0.2033203502693614,-0.36865950226244354,25.070495637556608,-72.92,82.68,34.98621621621622,0.012288505645821216,34.95,35.0,2.0037290615640285e-05,2.7954503098363356e-06,1.2138214175584734e-05,2.2621217327226096e-05,0.032769844492786714,0.0008330972882834283,0.028921626268913255,0.036489543114588414,1.7192970506001735e-05,2.398632412432759e-06,1.0415178494914085e-05,1.941010537688534e-05,0.024987850557429043,0.003486114760864188,0.01513717037256666,0.02821018114887423,0.032769855324140514,0.000833097745052171,0.028921637462239635,0.036489551486704304,0.17647058823529413,-0.0001252193752193861,True,False,False
0,5.8442573339748485,0.11576439604932962,5.6693928086729795,6.053329058910708,0.005508352724255657,0.007330634627810586,0.0001339951976105008,0.028917273177542738,0.0034085357802036407,0.01642895928090236,5.2699500874275884e-08,0.1429928665457315,-0.36825073338029113,0.028590359030764817,-0.41766086565938587,-0.3296917707895063,-0.18548332391181452,25.505490720766442,-74.14,66.83,34.968545454545456,0.01851537241987132,34.93,34.99,2.2383689869552864e-05,1.11881111680988e-06,1.82073212633771e-05,2.482816535915059e-05,0.031410114714192756,0.0010827820621286857,0.028234241410768395,0.03374067202261715,1.920629525841784e-05,9.599943875687737e-07,1.5622767742371126e-05,2.1303774194142445e-05,0.02791396841585174,0.001395232794947524,0.022705755558849988,0.03096239394388635,0.03141012864017139,0.0010827807902852016,0.028234253541155406,0.033740683935620984,0.18541548897682306,-0.00035507066699726756,True,False,False
0,5.584162755465515,0.07415032626612923,5.460599740250929,5.731822143830874,0.016380731093666286,0.01576739089453909,0.00011906134017360615,0.04906599755048073,0.012735696708793827,0.048225440310232265,3.807254123078252e-08,0.4261029976992719,-0.45467254004388513,0.019118774295279736,-0.47938388971012136,-0.41842354129245063,-0.15539027149321333,111.17006417572398,-812.17,498.47,34.9481981981982,0.012225026357896783,34.93,34.97,1.9989856212239195e-05,3.972341698245063e-06,1.1034740159622484e-05,2.482816535915059e-05,0.031582817431718174,0.0012916784668757153,0.028914274522223372,0.03374067202261715,1.7152269479386483e-05,3.408462499634502e-06,9.468344086285531e-06,2.1303774194142445e-05,0.024928696662513627,0.004953777565182043,0.013761063975060599,0.03096239394388635,0.031582828895434824,0.001291677322785377,0.028914279786709872,0.033740683935620984,0.06787330316742082,-0.00019252369252370215,True,False,False
0,5.356271561240796,0.05716232997449063,5.259253244886201,5.455408451038995,0.0052271461824509235,0.0052142049076453825,0.00015000793609871874,0.01857455351484492,0.005049090698714331,0.019340162891581972,6.072051726008221e-08,0.1494791977092013,-0.5095267111932826,0.018142192550242037,-0.5469847661528968,-0.479678096654507,0.7939479638009058,109.55020163019984,-750.98,410.61,34.92781818181818,0.01128299997372355,34.91,34.95,1.8269734952062748e-05,4.654269150288765e-06,8.827792127697988e-06,2.372469134318834e-05,0.03265095227512235,0.0007098449852680547,0.03028904423851309,0.03580349493765989,1.567632172475962e-05,3.993589440952043e-06,7.574675269028425e-06,2.035693978551389e-05,0.02278358963110712,0.005804187013721745,0.01100885118004848,0.029586287546380288,0.03265096174250512,0.0007098441817143234,0.030289048461362884,0.035803505042369496,0.08144796380090498,-5.986971124586739e-05,True,False,False
0,5.363936217005785,0.13512929590668338,5.160985303376036,5.652381220425894,0.038322356828412764,0.03264479130910123,0.0009024637802575843,0.11204856329934447,0.031570709732634115,0.07256686391088263,3.2231749408362376e-08,0.30348382849322775,-0.5403594208544001,0.012413846765632066,-0.5591766310439094,-0.5188463131007037,-3.0254041831543237,44.99467726524577,-213.7,254.38,34.905675675675674,0.01735310407766344,34.87,34.93,2.2131894007930615e-05,3.859823566821352e-06,-2.206948031924497e-06,4.358722363050881e-05,0.027966906146610036,0.011058130598425345,-0.046054785495705526,0.03442404683711298,1.8990242154959556e-05,3.3119164669364337e-06,-1.8936688172571063e-06,3.739995914082785e-05,0.027599962022378327,0.00481345987917602,-0.00275221279501212,0.054356202701489366,0.029320681867315852,0.006681373595177571,3.752616391420519e-05,0.046054811254206914,0.09496890898812888,-0.0002548262548262687,True,False,False
