,EDA_mean,EDA_std,EDA_min,EDA_max,EDA_phasic_mean,EDA_phasic_std,EDA_phasic_min,EDA_phasic_max,EDA_smna_mean,EDA_smna_std,EDA_smna_min,EDA_smna_max,EDA_tonic_mean,EDA_tonic_std,EDA_tonic_min,EDA_tonic_max,BVP_mean,BVP_std,BVP_min,BVP_max,TEMP_mean,TEMP_std,TEMP_min,TEMP_max,ACC_x_mean,ACC_x_std,ACC_x_min,ACC_x_max,ACC_y_mean,ACC_y_std,ACC_y_min,ACC_y_max,ACC_z_mean,ACC_z_std,ACC_z_min,ACC_z_max,Resp_mean,Resp_std,Resp_min,Resp_max,net_acc_mean,net_acc_std,net_acc_min,net_acc_max,BVP_peak_freq,TEMP_slope,0,1,2
0,0.2914478039147334,0.005243728416978027,0.2844961271749012,0.31273119992559617,1.3248187047710083,1.5605762035780237,0.3822231906368665,7.804994032095541,0.5410059056234819,0.9614976052257782,3.059177799968893e-08,4.939265935499629,-2.2312581743106223,1.4619150993349792,-7.856034647982046,-1.3965966427335779,-1.4879581447963803,48.36149013392109,-210.57,170.49,32.02171171171171,0.017102571517112804,31.99,32.05,-1.5532894703197102e-05,3.890856993771282e-06,-3.420769449482971e-05,-3.310422047886746e-06,-0.0058337991409496,0.013734022964017358,-0.04476155333361271,0.019936165908025414,-1.332797959702421e-05,3.338544657567848e-06,-2.935186666748515e-05,-2.8405032258856597e-06,-0.019370565562631968,0.004852160652139031,-0.04265929832268786,-0.00412831919251818,0.012531882336507106,0.00809133210799779,2.9625918879635672e-05,0.04476157251545613,0.15837104072398192,5.414180414178857e-05,False,True,False
0,0.28727428034514046,0.0021723051368686824,0.2822857724600412,0.29411908373461504,0.5143143165486471,0.1265771402906327,0.28801050239522474,0.7287905262308285,0.36379069476137227,0.64041693013532,5.643820522038823e-08,2.8765484236168835,-1.5864174745412656,0.1348729395316876,-1.7866303177957763,-1.4337885706749631,0.7376936122102878,42.90338864511902,-117.63,161.67,32.074363636363636,0.014432841800401884,32.05,32.09,-2.3608601882233037e-05,4.429523244766047e-06,-3.586290551877307e-05,-1.2689951183565858e-05,0.00014886366229751455,0.005589281199523117,-0.028244266519890968,0.015115783473105179,-2.0257329378271297e-05,3.8007465162713665e-06,-3.0772118280427976e-05,-1.088859569922836e-05,-0.029441516171982027,0.005523913736844071,-0.04472345791894695,-0.01582522357131969,0.003485996810591199,0.004370047661883448,2.7650857620993297e-05,0.02824429085625743,0.1492368569813454,0.0002079210152604973,False,True,False
0,0.28720830913606155,0.001295918105075842,0.28311202315955525,0.29059374707256086,0.35679527609215345,0.0562831061601956,0.2280832373868686,0.48231494953332965,0.2780199860700736,0.4829074833411112,8.270501972162947e-08,2.0557379400763924,-1.4311940127145724,0.038158895643556096,-1.5161264176830436,-1.3784130581616387,0.582669683257919,30.824516152536297,-83.84,61.43,32.09216216216217,0.013578419067529783,32.07,32.13,-2.5277543917687253e-05,2.3510774868108745e-06,-3.089727244694296e-05,-1.8759058271358226e-05,-0.011516593720169006,0.0037310404656376557,-0.02136039282931981,-0.004843106015598062,-2.1689362867339592e-05,2.01733890391909e-06,-2.651136344159949e-05,-1.6096184946685404e-05,-0.03152279926413769,0.002931951929843719,-0.03853097913016968,-0.02339380875760302,0.011516645818983696,0.0037310295936949464,0.0048431933203664955,0.021360419008258393,0.14027149321266968,-6.563706563705719e-05,False,True,False
0,0.2855911009275093,0.0018514725643293648,0.28058383021202404,0.29134099100762556,0.5591017193929398,0.21247195678009292,0.27003836286575916,1.0452446759406557,0.448273547971142,0.8248484166107861,2.625858996907482e-08,3.318994954501056,-1.697344571138931,0.22492455591633068,-2.0870966603054004,-1.4739110101038342,0.613154324477106,36.67452771226799,-155.15,174.4,32.088545454545454,0.012027214067765666,32.07,32.11,-2.5277036145304728e-05,5.5633718417356835e-06,-4.027680158262207e-05,2.758685039905621e-06,-0.012445120166832418,0.011410839748661946,-0.02824560320110731,0.046089539207330436,-2.1688927173923557e-05,4.7736437936484785e-06,-3.455945591494219e-05,2.3670860215713828e-06,-0.031522166037787125,0.0069378992820610845,-0.050227883508971186,0.0034402659937651497,0.016350674724244185,0.00419733950523418,4.246381706081113e-05,0.04608954049743829,0.14471452798191067,-0.0001774451682708687,False,True,False
0,0.28213932606456504,0.001817053000686412,0.2790002139993497,0.28780819452856654,0.4050091791415914,0.24588860533660267,0.10664253947922145,0.8172634136549017,0.2817235317137393,0.5391101117531063,6.816857300862011e-08,2.478081930846539,-1.6801659597938499,0.23303104202074937,-2.087421976890181,-1.4345143735934793,-1.572121040723982,50.8223466224427,-240.0,254.02,32.10207207207207,0.011210151010019896,32.09,32.13,-2.1397284892100547e-05,6.758770074888201e-06,-4.303548662252769e-05,2.206948031924497e-06,-0.006769463388083924,0.01299762153148044,-0.03235921890024572,0.028212854511306912,-1.8359911782246992e-05,5.7993536543157406e-06,-3.6926541936513574e-05,1.8936688172571063e-06,-0.026683854991911907,0.00842864136788551,-0.05366814950273634,0.00275221279501212,0.011136556621300527,0.009521198621269867,2.66633269916721e-05,0.03235922674846588,0.15384615384615385,0.00012390312390310286,False,True,False
0,0.28296403211437937,0.010341443841287922,0.27598993606898026,0.34692857420133233,2.189200462332179,2.421864815263546,0.21510463162362956,7.194327100119841,2.174869880083959,4.9201786416515665,7.713737204539939e-09,39.79066527757155,-3.4315191027827887,2.2477199381080326,-7.978416912772561,-1.6028912403399809,2.504276018099547,55.5717789713276,-156.15,256.61,32.10181818181818,0.017409362565032564,32.07,32.13,-2.4365679925989945e-05,2.6413997919634958e-06,-3.586290551877307e-05,-1.3241688191546983e-05,-0.01981104456483106,0.007791848014955934,-0.03304593541778241,0.007539178199523793,-2.0906939184643714e-05,2.2664495708985517e-06,-3.0772118280427976e-05,-1.1362012903542639e-05,-0.030385643468461017,0.003294003392479063,-0.04472345791894695,-0.01651327677007272,0.019913893192687448,0.007524869248000979,4.6413939578095886e-05,0.03304594214326998,0.13574660633484165,-0.00026373329125623505,False,True,False
0,0.27784128614406267,0.011145427004980925,0.2575589499142786,0.330991600794608,3.943658415940277,1.836682967658315,1.8631151374714277,7.2114832417944585,2.7135978525714135,3.90897249319001,1.2661359960475238e-08,31.65376355436331,-5.388609535053244,1.5440147973750036,-8.027116688502431,-3.84037533401625,-1.6407461842849065,38.22181437512029,-149.98,103.78,32.07918918918919,0.013693736798933091,32.05,32.11,-2.0228276503018368e-05,4.125377758237287e-06,-3.144900945492408e-05,2.206948031924497e-06,-0.015256631242881931,0.012787827293874418,-0.04062588239440465,0.03164376373655766,-1.7356845692110526e-05,3.539774886936368e-06,-2.6984780645913764e-05,1.8936688172571063e-06,-0.02522602281853586,0.005144623836284112,-0.03921903232892271,0.00275221279501212,0.018197205170045555,0.008065009629967842,2.5675796362350915e-05,0.04062589615884808,0.14471452798191067,-0.00027132327132329447,False,True,False
0,0.26879443148963617,0.0020990504406533782,0.26353735509571763,0.27200856376605803,0.7661830437056065,0.6302172655671786,0.17385375875770637,2.256837772568277,0.43918042936097273,0.8878681965116074,5.897166310830926e-08,4.8528563933545215,-2.570191630149605,0.7010054143871318,-4.147777549938173,-1.9598318522630058,-0.18346719457013524,26.858168835377477,-62.59,41.53,32.09509090909091,0.024297296808359823,32.05,32.13,-1.646348280150011e-05,1.3617902098973937e-06,-2.04142692953016e-05,-1.3241688191546983e-05,0.00803899698113861,0.0008161698831815305,0.005483038690562758,0.009615367926729967,-1.4126469474436636e-05,1.1684822745372774e-06,-1.7516436559628233e-05,-1.1362012903542639e-05,-0.020531071579985776,0.001698244084403556,-0.02545796835386211,-0.01651327677007272,0.008039026948634164,0.0008161649775813627,0.0054830880445863065,0.00961538650589711,0.14479638009049775,0.0006520749273043059,False,True,False
0,0.269610826588911,0.0011816927961331698,0.26505958719512185,0.2726329789960386,0.4125811309385596,0.1597250096982121,0.1420966312703585,0.6535474132711888,0.2927480961729892,0.6364567472305431,5.00969434824583e-08,3.66701629231014,-2.1842707195667477,0.15061091374446156,-2.3721363920167806,-1.9426054443384544,0.2695195025438102,24.47121973000981,-57.35,40.97,32.16468468468469,0.02066265053048935,32.13,32.21,-1.7057089873857132e-05,3.648897454883069e-07,-1.82073212633771e-05,-1.544863622347148e-05,0.006465697218256454,0.0014663995801453208,0.0013540511574364068,0.00892464136554425,-1.4635813231682041e-05,3.1309315977211424e-07,-1.5622767742371126e-05,-1.3255681720799745e-05,-0.021271339568229262,0.0004550420815418605,-0.022705755558849988,-0.01926548956508484,0.006465739206705317,0.0014663867489263284,0.0013542636797811544,0.008924668015528719,0.1492368569813454,0.0005111442611442584,False,True,False
0,0.2682800727596963,0.0010307511861113265,0.26498152963304916,0.2707801511418833,0.23359133081684497,0.08109415600740036,0.11728781433009539,0.3972158121068997,0.17923940092534246,0.42338693991978904,7.030893733883659e-08,2.800234716269077,-2.0574922557226256,0.0865668409318948,-2.195452964862343,-1.9383022297878338,-0.08764705882352929,24.644605117756843,-59.61,35.5,32.222882882882885,0.01669988499619487,32.18,32.25,-1.7312308967624915e-05,3.560908643427497e-07,-1.8759058271358226e-05,-1.544863622347148e-05,0.00542040891481106,0.0004034504065282163,0.004106263952448527,0.006861150109893331,-1.4854803634920141e-05,3.0554329153277747e-07,-1.6096184946685404e-05,-1.3255681720799745e-05,-0.021589614962682746,0.00044406928430318875,-0.02339380875760302,-0.01926548956508484,0.00542045720878511,0.00040344674967561484,0.004106334037142828,0.006861182502352646,0.15384615384615385,0.000332221832221821,False,True,False
0,0.26701942355666963,0.0016185744046274908,0.26282399827978153,0.27281076374264596,0.5685990161422518,0.17255710056548798,0.1551245172691499,0.8323254733717584,0.47806218732713146,0.8547166145006991,3.7012028997196467e-08,4.129411036512847,-2.4425656240152462,0.17139788995608385,-2.6277364305830946,-2.0398634912973503,-0.3117467495760315,29.80081382986467,-118.04,68.72,32.25545454545455,0.016006670836230162,32.21,32.29,-1.8233535012625073e-05,3.2291317889178913e-06,-4.138027559858432e-05,-4.965633071830118e-06,-0.004761403653545606,0.013934162692670091,-0.03925779608419664,0.010302752784874823,-1.5645260414974293e-05,2.770752227525341e-06,-3.550629032357074e-05,-4.260754838828489e-06,-0.02273844586919798,0.004026944766112301,-0.05160398990647725,-0.00619247878877727,0.01259296671141024,0.00762205481133176,6.32019602765561e-05,0.03925781872937884,0.1492368569813454,0.00023947884498344804,False,True,False
0,0.26459762628282485,0.0013834804394775159,0.2614584279645802,0.2689448636879946,0.5045015476065032,0.22753968145632567,0.17479805360305706,1.0603499334356028,0.3881030287315385,0.7093377650311207,2.3063975618242694e-08,3.3671086605303735,-2.4756906765768405,0.2227189570416403,-2.9989227260507496,-2.2309592183852143,1.0671945701357468,36.13541578975236,-111.99,112.77,32.23864864864865,0.015164940816748091,32.21,32.27,-1.877216514598221e-05,1.729713304179812e-06,-3.3104220478867456e-05,-1.0483003151641362e-05,-0.0009007077926079032,0.004787109955763686,-0.04545161155419025,0.007543856583780991,-1.6107431282986988e-05,1.4841781951991725e-06,-2.8405032258856593e-05,-8.994926881971256e-06,-0.023410153912777017,0.002157068956134457,-0.041283191925181796,-0.01307301077630757,0.0018762380461417448,0.004494994642648436,3.0613449508956865e-05,0.04545163248562445,0.14479638009049775,-0.00032643032643036126,False,True,False
0,0.26543734264222757,0.0027044337089555805,0.2534087552913123,0.2709303069873523,0.42814835382394095,0.3767558185258213,0.05710642071278864,1.1988120763429717,0.29185336088775826,0.7705327889074034,4.186592938992817e-08,5.0629498771730574,-2.3635057105895303,0.37105076324507796,-3.025538917829919,-2.0329918207262336,-1.1156900452488685,33.358229606635994,-170.72,114.44,32.231272727272724,0.011894728684396127,32.21,32.25,-1.5568470505747923e-05,4.481728782595534e-06,-3.64146425267542e-05,-1.0483003151641362e-05,-0.0064572931540896935,0.005258093307267722,-0.023426557447403417,0.020623550766170274,-1.3358505366985648e-05,3.845541408423688e-06,-3.124553548474225e-05,-8.994926881971256e-06,-0.01941493098381853,0.0055890175576438356,-0.045411511117699976,-0.01307301077630757,0.007247157498504592,0.004100132378429236,0.000660055259239022,0.023426584532432612,0.15837104072398192,-3.0205351306251935e-05,False,True,False
0,0.267710803660104,0.0012531816373471136,0.2642515971788508,0.27023246533740336,0.32937950726021825,0.05993334037648657,0.1824604250262079,0.4278552601422376,0.2617404784370693,0.4856162283406362,5.775531963791991e-08,1.9981883573671952,-2.1759010029744488,0.03413141641021836,-2.225946168421882,-2.108260018032181,0.280994912379876,29.307814993802367,-73.1,44.38,32.248198198198196,0.014409479089583791,32.23,32.27,-1.3114508135469977e-05,3.5256996305276736e-07,-1.434516220750923e-05,-9.931266143660237e-06,-0.005450340194708668,0.0005343325716946628,-0.009650121638354874,-0.0013881365284531435,-1.125288622593799e-05,3.025221868737497e-07,-1.230884731217119e-05,-8.521509677656977e-06,-0.016354674676800834,0.00043967848332369545,-0.01788938316757878,-0.01238495757755454,0.005450367824075436,0.0005343303736577093,0.0013881982091186935,0.009650140150611589,0.1492368569813454,0.00013882063882066052,False,True,False
0,0.2684924968820094,0.001375433166164373,0.26454470020361914,0.27246641727909576,0.36140149323282333,0.11373258987875405,0.1484921331819222,0.5546695599345068,0.2695357941013919,0.5768985976428457,4.1924499427636874e-08,2.9577251384629673,-2.1770713133095643,0.09620262034595924,-2.329039055330565,-2.0528568170261376,0.17834841628959275,31.333169821401818,-70.54,39.5,32.26563636363637,0.014176299689767087,32.23,32.29,-1.3283505362966367e-05,3.050498821389947e-07,-1.3793425199528107e-05,-1.2689951183565858e-05,-0.0052870142026235625,0.0003260613652304847,-0.005521134105228523,-0.0048317442252591505,-1.1397894071742928e-05,2.617476447829351e-07,-1.1835430107856916e-05,-1.088859569922836e-05,-0.016565425598485,0.0003804177427810876,-0.01720132996882575,-0.01582522357131969,0.005287043285982887,0.00032605982355038426,0.0048317731584484064,0.005521164020738937,0.14932126696832582,0.0003094470617406471,False,True,False
0,0.27064777496006426,0.0010256919831386111,0.2678650760627701,0.2726618009585719,0.23894036243222416,0.03615124285410301,0.15836553011398724,0.3226400305755495,0.19030548838198078,0.36848320568840087,5.33519974865726e-08,1.8367700579202118,-1.9690436992817464,0.04058878076238604,-2.0599020583128937,-1.9216933466106352,-0.022114188807235986,31.204409481566678,-71.22,39.9,32.28369369369369,0.014265529205231074,32.25,32.31,-1.3430177531377638e-05,3.0215776434661185e-07,-1.434516220750923e-05,-1.2689951183565858e-05,-0.005344010745103077,0.0003026305123979128,-0.006209187303981553,-0.0048317442252591505,-1.1523745930355888e-05,2.592660669659467e-07,-1.230884731217119e-05,-1.088859569922836e-05,-0.016748335668289253,0.00037681107716062994,-0.01788938316757878,-0.01582522357131969,0.0053440401392066145,0.0003026291214262627,0.0048317731584484064,0.006209213904505971,0.1537591859807801,8.950508950509488e-05,False,True,False
0,0.2725034633569659,0.0019353735257916227,0.2691556908751586,0.27769655621608874,0.3739343916982443,0.14332392569528754,0.18698179105830806,0.6424611023816957,0.2929741381229537,0.5927875419307587,3.2350730094776736e-08,2.712561673597376,-2.0309795939332664,0.1182515373540563,-2.2294792950512576,-1.900308659886437,0.14255656108597303,37.909310595064426,-209.02,208.1,32.27581818181818,0.014166883348846488,32.25,32.29,-2.5866729138879766e-05,1.1161476803284357e-05,-5.1311541742244554e-05,-6.620844095773492e-06,-0.0014658153319761153,0.006524951681360623,-0.04475887997118003,0.016487879826962214,-2.2194912461086965e-05,9.577090294458376e-06,-4.402780000122772e-05,-5.681006451771319e-06,-0.032257552906245,0.013919113103194772,-0.06398894748403179,-0.00825663838503636,0.004690083479818252,0.004765042190823211,1.2837898181175457e-05,0.044758896556288674,0.14932126696832582,-6.924689493494736e-05,False,True,False
0,0.2790033597510106,0.001732415860848103,0.2752089821257577,0.2828869839032333,0.3259830152462207,0.09666705458533972,0.17369782258780178,0.5171562382598751,0.2532772116467783,0.5131438569694301,5.4148183714630704e-08,2.431451208280147,-1.725231470866695,0.07194913716220375,-1.883320560441902,-1.609605626801721,-0.04357829282080254,26.037469763825996,-80.27,71.78,32.255585585585585,0.015056540993849808,32.23,32.29,-3.5697696132202454e-05,5.942997058162951e-07,-3.8069853550697574e-05,-3.089727244694296e-05,0.004644849271476702,0.003289236699804606,0.0006439427186137235,0.015787796497262096,-3.063036058648076e-05,5.09938070461956e-07,-3.2665787097685084e-05,-2.651136344159949e-05,-0.04451743068994181,0.0007411317488039084,-0.04747567071395907,-0.03853097913016968,0.004645282616160755,0.003288960830501712,0.0006457279106045461,0.015787848990055534,0.1492368569813454,-0.00016426816426818135,False,True,False
0,0.2821360898937763,0.001082835329014758,0.2790606310197513,0.28448059747278853,0.33541749752000777,0.1100573598391389,0.20026204475266465,0.6547062240092936,0.28986958061554935,0.5772099447680344,6.484062353706577e-08,2.549350781313187,-1.6110132331941827,0.10148391027786288,-1.8904515720504111,-1.499481771212925,-0.27455316742081437,24.144142351174924,-84.2,59.01,32.230363636363634,0.012987451440233428,32.21,32.25,-3.5719978171682936e-05,7.084094785781993e-07,-4.08285385906032e-05,-2.5931639375112838e-05,0.006201358611141751,0.0009278731523742512,-4.812052378833424e-05,0.017162566213551812,-3.064947966075833e-05,6.078498088888379e-07,-3.5032873119256466e-05,-2.2250608602771e-05,-0.04454521789347812,0.0008834343187277586,-0.05091593670772422,-0.03233850034139241,0.00620167406611773,0.0009269575206579327,7.11022053111256e-05,0.01716261801226589,0.15837104072398192,-0.00015003493902575075,False,True,False
0,0.2759239003846303,0.0026141352732012373,0.2726620185734434,0.2855532466492,0.3699204511577671,0.18190458921634328,0.08012543890364215,0.717041409121126,0.28024269197600266,0.6079373272561042,2.989025738031614e-08,3.191290034689553,-1.8911462406176345,0.1262351131780045,-2.1736848491209155,-1.6919377361317234,0.3902601809954752,38.604105123161595,-194.11,206.53,32.221891891891886,0.011561182191320168,32.21,32.25,-1.8105586950819498e-05,3.842288995755661e-06,-5.462196379013129e-05,2.758685039905621e-06,0.0029412111255094388,0.004320971326744028,-0.024836080875318037,0.022693725427902905,-1.5535474751077883e-05,3.2968709516045104e-06,-4.686830322711338e-05,2.3670860215713828e-06,-0.022578886021070867,0.0047915930884115995,-0.06811726667654996,0.0034402659937651497,0.0041574506526395345,0.0031666919558809635,3.2588510767599236e-05,0.02483618516282471,0.14932126696832582,0.00017093717093714944,False,True,False
0,0.27813478865844365,0.002817270545787467,0.26661819365461026,0.2833874681421188,0.6821267321667918,0.214433942187857,0.33044518281429036,1.0720398072084514,0.5395023714425704,0.9349313419102638,2.8920425165779307e-08,4.702385708379634,-2.1158491727844644,0.2685190081057528,-2.4542669318065937,-1.6962212451967185,-0.13343131712832082,44.497906591107146,-142.53,194.07,32.24781818181818,0.013638976674857962,32.21,32.27,-2.7918891222863852e-05,9.088293302778485e-06,-4.6345908670414436e-05,-2.758685039905621e-06,0.0037092212904056582,0.009712901810193748,-0.04821986452379849,0.01719798826578489,-2.395576740202061e-05,7.798197955096661e-06,-3.976704516239923e-05,-2.3670860215713828e-06,-0.03481673720205944,0.011333713685554346,-0.05779646869525452,-0.0034402659937651497,0.009006401562248884,0.005187362663961053,2.5675796362350915e-05,0.04821990319416466,0.1537591859807801,-4.472195297885146e-05,False,True,False
0,0.2720154892621662,0.002418922631535356,0.26840480966801006,0.28013887566748347,0.5418498854053978,0.23540045079760757,0.23329813201420782,0.9727973842707276,0.36540057020816236,0.7471975699520941,2.7586530393364228e-08,3.731889143967244,-2.2181012962991407,0.20373228849435362,-2.535171987769615,-1.945532187901017,-0.11774321266968334,24.932882646534974,-58.17,51.75,32.259729729729735,0.014737673398439437,32.23,32.29,-1.9537981106155105e-05,1.3430448442914201e-06,-2.482816535915059e-05,-1.4896899215490354e-05,0.005911180889246221,0.0015883365493609182,-0.0027822881223798284,0.01098813262119517,-1.6764538646893793e-05,1.152397838563875e-06,-2.1303774194142445e-05,-1.2782264516485466e-05,-0.024365177979372005,0.0016748673513216487,-0.03096239394388635,-0.018577436366331808,0.0059414740204879225,0.0014710605012850984,3.752616391420519e-05,0.01098815573358802,0.14932126696832582,0.00021112671112673127,False,True,False
0,0.2750293413420098,0.0032026311877702456,0.27045003536684264,0.28157208951686696,0.30732684876871874,0.14232917552065028,0.16260681355218315,0.5843767589245704,0.2550930452841877,0.5142818577023835,6.45213473760009e-08,2.7701782878883057,-1.8639790039311328,0.038084006545973464,-1.941703687011842,-1.8123888233516392,0.22671000565291105,33.24463508799,-124.2,129.8,32.272909090909096,0.015989988527541927,32.25,32.31,-2.367294651645113e-05,5.63376761726944e-06,-4.303548662252769e-05,-1.4896899215490354e-05,0.0004292487056407386,0.008128382626082951,-0.03444743875839898,0.025434576432576114,-2.031254020590024e-05,4.834046795018049e-06,-3.6926541936513574e-05,-1.2782264516485466e-05,-0.029521758263333395,0.0070256875540712135,-0.05366814950273634,-0.018577436366331808,0.006542984952043979,0.004837046184762394,2.66633269916721e-05,0.034447473196430885,0.1492368569813454,4.327930933435095e-05,False,True,False
0,0.28125595924859664,0.001288466486380858,0.27725153892360227,0.2842662244425373,0.4237232315296366,0.06718630222656179,0.28058462916075955,0.5901029768240948,0.3207860440600836,0.5665510293888478,3.9085962910689886e-08,3.2373746620760517,-1.7338006103562775,0.06477589447400343,-1.8820913299593034,-1.655571832218613,0.06227941176470628,32.83760923996256,-129.38,100.83,32.260450450450456,0.015919535590953732,32.21,32.29,-2.7102520174855584e-05,2.736589899922477e-06,-4.193201260656545e-05,-2.2069480319244968e-05,-0.007966457327442155,0.005379400169214762,-0.03375069713173972,0.001348036091962865,-2.3255281312379123e-05,2.348127316158403e-06,-3.5979707527885024e-05,-1.8936688172571062e-05,-0.03379866753693617,0.0034127118664864183,-0.05229204310523028,-0.027522127950121197,0.008003314748435152,0.005324468496786561,4.048875580216875e-05,0.03375071996408363,0.14479638009049775,-0.00027027027027027667,False,True,False
0,0.2837287794754016,0.001852470564519902,0.2786715628739974,0.28834461854982585,0.5164883219853801,0.05225272023129131,0.38640553254356746,0.6046711068143265,0.3952059311112985,0.7050378881472387,5.9136555208283426e-08,2.9761720235499443,-1.7287931578884908,0.06376367093525721,-1.810188676874104,-1.5666484748953902,-0.1864196832579185,27.560760368230767,-63.52,40.45,32.237636363636355,0.01298745144023429,32.21,32.25,-2.577498101651186e-05,7.098811204726286e-07,-2.9793798430980708e-05,-2.372469134318834e-05,-0.013263014525901765,0.0016849265933748425,-0.0165440204380486,-0.006227232500402178,-2.211618810697588e-05,6.091125492548721e-07,-2.5564529032970932e-05,-2.035693978551389e-05,-0.03214313682002701,0.0008852695552593554,-0.037154872732663616,-0.029586287546380288,0.01326305904835764,0.001684918674095337,0.006227347250609108,0.016544054238308067,0.14479638009049775,-4.90498839122646e-05,False,True,False
0,0.2876787746902094,0.0017206720852672116,0.28331055650252496,0.2915656721747652,0.4177428130195537,0.04562582374566503,0.31263894779719026,0.5158582200081426,0.33086504894663793,0.5619230146877681,4.422585675456503e-08,2.257614331411517,-1.4733216522277397,0.02615317055939182,-1.561373270057954,-1.4415839032617852,-0.44359525155455054,31.278366006767055,-132.95,89.8,32.19558558558558,0.01929129265119248,32.18,32.23,-2.6453417812524852e-05,1.2852354346846607e-06,-3.531116851079195e-05,-2.427642835116947e-05,-0.015231481689576812,0.0040013188439048854,-0.019297569914277064,0.014407011715498838,-2.26983198955388e-05,1.1027945517021984e-06,-3.02987010761137e-05,-2.083035698982817e-05,-0.03298919318546202,0.0016027751250932496,-0.04403540472019392,-0.03027434074513332,0.015438767869139764,0.0031059705353122104,5.036406209538064e-05,0.01929760146616633,0.14471452798191067,-0.0002737802737802692,False,True,False
0,0.2906542309028347,0.0014069505199126677,0.28724892206678376,0.2938602996512496,0.3699508890147116,0.14055177759031046,0.1852977142266637,0.7581580664752918,0.29401651499577125,0.6261420050050774,5.362264410280204e-08,3.4820182510513096,-1.3080736456935378,0.1223737306973314,-1.585482063209787,-1.1420574979863227,1.954287330316742,29.981659187974532,-64.44,125.49,32.157090909090904,0.014798056811773912,32.13,32.18,-2.643656611657973e-05,2.204184248249947e-06,-3.475943150281083e-05,-1.4896899215490354e-05,-0.0182226246733002,0.0048400254872913604,-0.035114773398298695,0.013038925405290832,-2.2683860320293907e-05,1.8912973563588745e-06,-2.9825283871799426e-05,-1.2782264516485466e-05,-0.03296817798595259,0.0027487661706776505,-0.04334735152144089,-0.018577436366331808,0.018486074842517384,0.0037074525676258213,0.0013392982583669097,0.035114783151808916,0.14932126696832582,-0.00021783919031624348,False,True,False
0,0.28983148845769197,0.0015833549313139684,0.2856080834492218,0.29428133138702117,0.49845215415652483,0.20046174870487232,0.1785087320836345,0.846975087855279,0.37238028541825685,0.6492692146037824,4.258129493450724e-08,2.673704572958977,-1.468740300698602,0.21151646268884144,-1.7658166930201653,-1.1901340914696057,-2.905409836065574,51.73684318799079,-283.33,193.77,32.15324324324324,0.008438242186848912,32.13,32.18,-2.5215316412208532e-05,4.52748049162622e-06,-4.524243465445219e-05,-9.931266143660237e-06,-0.002056608293998297,0.014500852715881047,-0.03582154013408052,0.060508581053776364,-2.1635968639203652e-05,3.884798601377198e-06,-3.882021075377068e-05,-8.521509677656977e-06,-0.031445197374875763,0.005646073019379434,-0.05642036229774846,-0.01238495757755454,0.011294839892528155,0.009316253033191176,3.851369454352637e-05,0.06050859677662915,0.1492368569813454,-2.4657774657780598e-05,False,True,False
0,0.28675712983514545,0.0020165388575029528,0.28149081971036555,0.29177590866300535,0.36750370706753155,0.07697431697722358,0.22763742481122998,0.48914565750084094,0.26919253406149735,0.5258136285230444,4.8900798965689773e-08,2.53816896318751,-1.4602372696700043,0.04154025113602319,-1.5286389995133596,-1.4072497944298217,1.2338857466063349,36.74522650282829,-135.75,104.59,32.16387387387387,0.011690802225462073,32.13,32.18,-1.9641587829373282e-05,3.954393285873261e-06,-4.800111969435781e-05,-1.1586477167603609e-05,-0.021408703975880825,0.010099314603496076,-0.030983112502739663,0.032987121444263336,-1.6853438257658692e-05,3.393061888321459e-06,-4.1187296775342064e-05,-9.941761290599808e-06,-0.02449438253931884,0.004931394686443956,-0.05986062829151361,-0.01444911717381363,0.0226740053493838,0.00679380393435278,3.357604139692043e-05,0.032987149331487824,0.14932126696832582,0.00011407511407510733,False,True,False
0,0.29109630167554507,0.0046365191111685106,0.28538142174255626,0.30534717770458664,0.47903948523639067,0.19957281686445227,0.253698312325908,1.0868358871312622,0.38435774764378744,0.8307432134450153,4.22844088632246e-08,6.177804943698934,-1.399498675236803,0.07436488904822727,-1.5199571163265557,-1.1952264343382706,-0.27674392312040696,26.974062844055283,-75.88,46.71,32.160545454545456,0.011238561045732204,32.13,32.18,-1.824789016102277e-05,3.2141619069486288e-06,-2.1517743311263846e-05,-1.0483003151641362e-05,-0.025749378626633214,0.0010688535048952762,-0.030298401007027485,-0.020654962774754322,-1.5657577830923645e-05,2.757907340254256e-06,-1.8463270968256787e-05,-8.994926881971256e-06,-0.022756347705817123,0.0040082763153379075,-0.02683407475136817,-0.01307301077630757,0.02574939013949731,0.0010688549864323708,0.020654967892531736,0.03029841231099976,0.1492368569813454,-0.00016193674909270809,False,True,False
0,0.29469085666014266,0.0035676902071022317,0.2873803019387632,0.3022767193470718,0.6931733167648146,0.32972565128959225,0.2701300480546369,1.4131437819473955,0.5854869814379563,1.0654402532503342,2.420535949454461e-08,6.54713978541654,-1.4709045002853278,0.426056120342123,-2.081640705227659,-0.9513626609734922,-0.35294117647058915,43.39233767015756,-133.58,157.99,32.15072072072072,0.012628374379776928,32.13,32.18,-2.028632123349602e-05,5.506157125052888e-06,-3.64146425267542e-05,-1.2689951183565858e-05,-0.023068907387181394,0.006514736647457907,-0.030298401007027485,0.008909937872164481,-1.7406650895731823e-05,4.724550782257572e-06,-3.124553548474225e-05,-1.088859569922836e-05,-0.025298408505734993,0.006866548677950996,-0.045411511117699976,-0.01582522357131969,0.023445130144897606,0.004992304447479321,4.345134769013232e-05,0.03029841231099976,0.14932126696832582,2.562302562301379e-05,False,True,False
0,0.28939249810092715,0.0021760201754862933,0.28553660606458514,0.2953755955961316,0.7274199818434106,0.29105235156083126,0.14017095643199598,1.196258859193243,0.47922568066750926,0.9689595868357395,4.428799016409357e-08,4.071991271003096,-1.7152460439082733,0.23646766208082862,-2.062980779482181,-1.206725607490057,0.7075000000000008,39.12319227839244,-138.99,177.09,32.13909090909091,0.011377222903714145,32.11,32.15,-2.1551446703154095e-05,3.058991694155775e-06,-2.9242061422999583e-05,-9.379529135679113e-06,-0.009706329676574196,0.015651259447799156,-0.042689373650055575,0.01098880096180334,-1.8492190118746574e-05,2.6247637459863194e-06,-2.5091111828656657e-05,-8.048092473342702e-06,-0.02687610515038702,0.003814768611995732,-0.03646681953391059,-0.01169690437880151,0.01429736054662771,0.01160328657582213,3.2588510767599236e-05,0.04268938618582667,0.15837104072398192,-2.1639654667173808e-05,False,True,False
0,0.2916681431524533,0.0015670277492739193,0.2882620340802627,0.29501466359133993,0.20364321901474983,0.0506475474866287,0.11706616396498869,0.3648291607657294,0.16348873361577593,0.3975772189977482,5.506448896852589e-08,2.645912436562407,-1.1016561842825328,0.04485376846421315,-1.1987607377236276,-1.0319434721532659,0.21200113058224965,25.297120299109157,-136.66,55.12,32.16135135135135,0.013037462558927432,32.13,32.18,-2.5267061238945745e-05,3.203098232933582e-06,-3.531116851079195e-05,-1.1034740159622484e-05,-0.0024415142890866904,0.006248752999510051,-0.01930559000157512,0.023380441945439596,-2.1680368218817307e-05,2.7484141695118885e-06,-3.02987010761137e-05,-9.468344086285531e-06,-0.031509726657922656,0.003994479168896946,-0.04403540472019392,-0.013761063975060599,0.005713301220615148,0.003512412396597033,4.246381706081113e-05,0.02338044646663321,0.1628038439796495,0.00016523341523340323,False,True,False
0,0.2924448130883647,0.006088335148125487,0.2673731008916418,0.3001060609194937,0.8774554510937764,0.8142052437857406,0.053430832868398385,2.389884368903899,0.8655080044580628,1.5731824790179947,1.4355599375903694e-08,8.58452920037433,-1.7441569213439148,0.9415536165641148,-3.756647293275046,-0.8759606930818489,-0.40541289592760166,56.238983982234586,-490.66,189.62,32.185818181818185,0.016993351003121854,32.16,32.21,-2.821910106544182e-05,4.227839599428482e-06,-4.138027559858432e-05,-7.172581103754615e-06,-0.008177183539899827,0.009231284500543493,-0.03855637607328019,0.03369789822369419,-2.421336205730926e-05,3.627692133203975e-06,-3.550629032357074e-05,-6.154423656085595e-06,-0.035191119089616224,0.0052724006512556015,-0.05160398990647725,-0.00894469158378939,0.010597435350786623,0.006302956704932149,2.370073510370854e-05,0.03855638597058174,0.08144796380090498,0.00019475689200460888,False,True,False
0,0.29864416268824184,0.007690590379270033,0.2795502296387088,0.3114101035389603,1.5852538511894991,0.9489564913978303,0.40255667744890433,3.1835583558879015,1.0508343030251321,1.9131116253550662,2.302604684700782e-08,9.612122632228761,-2.206532115414634,1.1484229784307267,-3.9266271109794832,-0.8773990183569602,0.3182928208027129,55.792649439447054,-261.37,174.24,32.19234234234234,0.017106880856702252,32.16,32.21,-2.1455953759465052e-05,4.38293239763252e-06,-4.910459371032006e-05,-1.434516220750923e-05,-0.025816310278018954,0.013201399339169122,-0.03993181413017807,0.017141847654698505,-1.841025252569218e-05,3.7607693019871606e-06,-4.2134131183970615e-05,-1.230884731217119e-05,-0.026757019019833607,0.005465811813393011,-0.06123673468901967,-0.01788938316757878,0.026562946293561252,0.011624338624227435,5.431418461266541e-05,0.039931823190220476,0.16732617297908423,-8.230958230958251e-05,False,True,False
0,0.30647268544648537,0.001297123110724322,0.30337277791282996,0.30875269806040007,0.2540404258450938,0.07807219020739177,0.11248225547849378,0.44821890648963314,0.17616313299395409,0.3631615597853291,8.77915322661238e-08,1.9664587147447783,-0.5658502802962446,0.10206782418692027,-0.8658331549440641,-0.47026580863846235,-0.4974886877828052,25.101485187176124,-69.24,55.41,32.171454545454544,0.020580402347882068,32.13,32.21,-2.0442979592097e-05,2.389407576286028e-07,-2.1517743311263846e-05,-1.8759058271358226e-05,-0.036212936935637347,0.0003784164479009409,-0.037867654533918986,-0.03442538351832933,-1.754107139152694e-05,2.0502279861049032e-07,-1.8463270968256787e-05,-1.6096184946685404e-05,-0.025493772027100393,0.00029797521322777915,-0.02683407475136817,-0.02339380875760302,0.03621294695625129,0.00037841638413383847,0.03442539239244047,0.03786766408782268,0.15837104072398192,-0.0004663345580776982,False,True,False
0,0.3087090124594678,0.001114687634221167,0.3054523074440813,0.31092659230049496,0.30671535558083335,0.06864526206931296,0.1819287952434612,0.41800563589465833,0.24606950038460812,0.428020692661661,7.679196301069169e-08,1.6105116896672502,-0.5293372438795344,0.08096546974471658,-0.6335101797267928,-0.40882787328517733,-0.015816845675522453,35.30334979431084,-83.74,60.95,32.13288288288288,0.014978007355475763,32.11,32.15,-2.0420503611775964e-05,2.886105829907368e-07,-2.2621217327226096e-05,-1.9310795279339348e-05,-0.036269979234448475,0.00038816175322563566,-0.038558381095104705,-0.035114105057690526,-1.7521785906569637e-05,2.4764192605992955e-07,-1.941010537688534e-05,-1.656960215099968e-05,-0.025465742966277398,0.00035991682984503866,-0.02821018114887423,-0.02408186195635605,0.03626998921769595,0.0003881617144761833,0.03511411427704047,0.038558392616225484,0.1492368569813454,-0.0002822042822042752,False,True,False
0,0.3109654366232975,0.0015255735447187336,0.3078621746259926,0.3144920607443134,0.5080952100044274,0.13103002054314897,0.3154993944718346,0.742668174062038,0.39468403653424305,0.6961013722689936,6.890362591605026e-08,2.843999426489363,-0.6416901870125791,0.10990740448717297,-0.8315138816434358,-0.5151721970373087,0.38070701357466097,38.7669946552333,-88.58,47.28,32.11363636363637,0.013322208314013404,32.09,32.15,-2.05103863758775e-05,2.8352405524509246e-07,-2.1517743311263846e-05,-1.9310795279339348e-05,-0.03623325544689669,0.0003671263170097627,-0.037867654533918986,-0.035114105057690526,-1.7598909692506514e-05,2.4327743770736956e-07,-1.8463270968256787e-05,-1.656960215099968e-05,-0.025577832825138088,0.00035357358725788103,-0.02683407475136817,-0.02408186195635605,0.03623326552849333,0.00036712626076463656,0.03511411427704047,0.03786766408782268,0.15384615384615385,5.1213849378970904e-05,False,True,False
0,0.314168366640172,0.0011453668033381973,0.3116148262219846,0.3165235908646173,0.41277679789691957,0.05851709618551463,0.2967047585331265,0.5361853890936189,0.3240803768705584,0.5894565691410324,6.55194778431678e-08,2.6823328601128713,-0.4195167316602264,0.055182096551768686,-0.5358167873332473,-0.3404404899504754,0.048059954751130916,33.96347879443201,-85.56,46.24,32.09918918918919,0.014717653909822596,32.05,32.11,-2.061087241466139e-05,3.3665698767813603e-07,-2.372469134318834e-05,-1.9310795279339348e-05,-0.03616799654886803,0.0004420200597510837,-0.04131193057133316,-0.034426720199545666,-1.7685131604151985e-05,2.8886807956319267e-07,-2.035693978551389e-05,-1.656960215099968e-05,-0.025703145681472073,0.0004198339315720237,-0.029586287546380288,-0.02408186195635605,0.03616800674846088,0.00044202002659171136,0.034426730147989706,0.0413119423992219,0.16289592760180996,-8.07300807300285e-06,False,True,False
0,0.30733395460200497,0.0025407890932638037,0.303803517544951,0.31519884335447085,0.33920928428930514,0.10379689576177492,0.17109858342652584,0.5831688556543946,0.2550047176512884,0.44773225532722927,4.1085501223392384e-08,1.6901953262806027,-0.6164531811345623,0.08249396330170097,-0.7252393638898376,-0.48790342571424183,-0.26742227247032213,41.5618568595534,-199.29,184.68,32.089636363636366,0.016023335776542594,32.07,32.11,-2.3457560755613777e-05,2.545348533988877e-06,-3.8621590558678696e-05,-1.1034740159622484e-05,-0.009659603161524326,0.006862048434477689,-0.04613899641233511,0.015781781431788554,-2.0127728740891144e-05,2.184032917015568e-06,-3.313920430199936e-05,-9.468344086285531e-06,-0.02925315771711977,0.0031742210064188738,-0.0481637239127121,-0.013761063975060599,0.009882331934836952,0.0065369102733439655,3.752616391420519e-05,0.04613901635033816,0.1628038439796495,-7.501746951289562e-05,False,True,False
0,0.3095134693225648,0.0023920407906444963,0.30375437765775415,0.31669642005680937,0.5436845287384254,0.24593627250800193,0.2644365452320845,1.0073473455017747,0.45018622221677734,0.8602317055954174,5.444926998166011e-08,3.480029453201258,-0.7344709080467312,0.18615961957116461,-1.080246999662108,-0.5220616511179941,0.64439479638009,45.38685766184712,-155.26,222.83,32.11738738738738,0.022348956116020204,32.07,32.16,-2.2805337708848756e-05,5.563805370092668e-06,-3.6966379534735316e-05,-3.86215905586787e-06,-0.010860571173898919,0.0073230242600928,-0.03510675331100064,0.017871337971158155,-1.9568089624931394e-05,4.774015782077361e-06,-3.1718952689056526e-05,-3.313920430199936e-06,-0.02843979166203276,0.006938439921112766,-0.046099564316453005,-0.00481637239127121,0.01113504974566136,0.006898077860734337,3.55511026555628e-05,0.03510675764688471,0.14932126696832582,0.0005416812916812694,False,True,False
0,0.3063980676613421,0.001287288011280121,0.30331717381110446,0.30924343759656175,0.42318582723753223,0.1747720004689229,0.19786563264554938,0.8002803254213386,0.29268410108074033,0.540301927192394,8.778630000705334e-08,2.336413732073211,-0.7374949193524056,0.16616146189491834,-1.080021030815036,-0.6051018899905076,-0.48958733747880157,26.20335577882525,-128.56,42.88,32.160363636363634,0.010309634998947272,32.15,32.18,-2.2293292280674603e-05,3.0387704460593835e-06,-2.9242061422999583e-05,-1.544863622347148e-05,-0.006472158428779906,0.0032399287160906876,-0.013795149346077337,0.0027187957646035545,-1.9128729727767474e-05,2.6074129310091478e-06,-2.5091111828656657e-05,-1.3255681720799745e-05,-0.027801236535830054,0.0037895513540734996,-0.03646681953391059,-0.01926548956508484,0.006587903240845357,0.002997444514286893,3.160098013827805e-05,0.01379519917242268,0.14471452798191067,0.00019944548384915104,False,True,False
0,0.3317413461474292,0.007186164821716576,0.3149024218348566,0.33942742788374386,1.2743826763927713,0.46466761653939836,0.5019737336427215,2.1701549970423804,1.018400730340373,1.3784884055784623,1.7926438999893435e-08,6.367845114968723,-0.5851011809263746,0.5951950585759347,-1.291809183214666,0.3228916105342987,-0.8109728506787329,47.13378371212451,-187.48,184.4,32.648198198198195,0.010719412992592887,32.63,32.66,-2.4675875958757613e-05,6.493363269670879e-06,-5.020806772628231e-05,5.517370079811242e-07,-0.01145593266060989,0.014691392090946958,-0.053004156565877474,0.0350867030927555,-2.1173102477114524e-05,5.571621698847082e-06,-4.308096559259917e-05,4.734172043142766e-07,-0.030772478807578954,0.008097661211290963,-0.06261284108652573,0.00068805319875303,0.014417758614919668,0.011794828328997475,3.2588510767599236e-05,0.05300416302749011,0.10407239819004525,-0.00015066690066687069,False,False,True
0,0.33785300853634653,0.002971950089526698,0.33328090209515926,0.3446460814920833,0.7433789421970325,0.22834061277335493,0.3646456503287002,1.3445842797359626,0.5386895476135505,0.9408696626135226,4.736820358175464e-08,4.181378869665169,0.1881120122482447,0.25753437577379423,-0.5550964139119074,0.42112366914080246,-0.14969474279253883,37.50343364547949,-106.72,136.12,32.64672727272727,0.013417029498629938,32.61,32.66,-2.7949473930319823e-05,5.923130328226193e-06,-4.689764567839556e-05,0.0,-0.01802364541125939,0.009026212791365286,-0.053722285091998216,0.010272009116898942,-2.3982008853390973e-05,5.082334083476744e-06,-4.024046236671351e-05,0.0,-0.03485487589746543,0.0073865423381324884,-0.058484521894007546,0.0,0.018295616385281772,0.00846078982651145,0.0006481852009320588,0.05372231736663047,0.2849067269643866,0.00019908482293801177,False,False,True
0,0.33803120690983157,0.0012489177865622932,0.3347745308932167,0.34163867487624394,0.7581745094398175,0.09184277494550198,0.5775343933416637,0.9859327421019137,0.5905237588879378,0.9844834890931083,9.890859331562751e-08,3.855932862786341,0.1803247506411972,0.0865343188774526,-0.03325483953408481,0.30943424122799557,0.5352488687782804,38.517212802995026,-99.28,165.75,32.66297297297297,0.011409294026012493,32.63,32.68,-2.5190788890414204e-05,4.919322526592891e-06,-4.248374961454656e-05,-8.827792127697988e-06,-0.01826548103582849,0.008641653329800433,-0.041998647088869856,0.008897907741217398,-2.161492283181959e-05,4.2210181372128026e-06,-3.64531247321993e-05,-7.574675269028425e-06,-0.03141460990370027,0.006134726420664306,-0.05298009630398331,-0.01100885118004848,0.018421461675680408,0.008303636783080973,3.0613449508956865e-05,0.04199865766625287,0.08597285067873305,0.00013329238329237069,False,False,True
0,0.3366763999841484,0.0017431743285301984,0.33154266794328574,0.33954079937473425,0.7694331853991656,0.15318003686075138,0.47029970029007134,1.0296979036368268,0.6067533516673086,1.0287869133859293,5.160389804359511e-08,4.527931718687693,0.1153512280597135,0.17118224071790053,-0.13286893523519927,0.34039234751096803,-0.7659299039005087,51.26482943323437,-129.02,169.31,32.673818181818184,0.014398127948002323,32.65,32.71,-2.5207835232439297e-05,5.959400126712667e-06,-5.296675276618793e-05,-6.620844095773492e-06,-0.01271714777559632,0.0127370854396304,-0.051653447111481926,0.028849445483230755,-2.1629549422873966e-05,5.113455335725779e-06,-4.5448051614170555e-05,-5.681006451771319e-06,-0.03143586783997741,0.007431773218979256,-0.06605310708029088,-0.00825663838503636,0.014925600112731413,0.010055732794069927,3.6538633284884e-05,0.051653475127724204,0.054267947993216506,5.157451029011455e-05,False,False,True
0,0.3422317828277606,0.003940888450009943,0.33295095971397054,0.35211164611241064,1.3078430648828336,0.2516819656110521,0.8588326545209563,1.7878405030510214,1.0017793931602248,1.8762282051532109,6.519069017940637e-08,12.106228171915706,-0.20255740361660127,0.22759557160620225,-0.477553925439395,0.2059249429086505,-0.26248868778280515,52.940522051360745,-196.95,253.72,32.71342342342342,0.023335322250554975,32.66,32.75,-2.290519961074579e-05,7.045521051823393e-06,-4.579417166243331e-05,4.965633071830118e-06,-0.0026095021405464695,0.018350916431912778,-0.042680685222149344,0.043982605812148384,-1.965377599675298e-05,6.04539994787829e-06,-3.929362795808496e-05,4.260754838828489e-06,-0.028564326177644175,0.008786239143767468,-0.05710841549650149,0.00619247878877727,0.015524782020904002,0.010113482777700059,2.073814321574497e-05,0.04398264331108166,0.07239819004524888,0.0005479115479115361,False,False,True
0,0.3400338471524723,0.0024019107624838752,0.33533231484251547,0.34722656768084526,0.8453881134144201,0.09724372930309301,0.6565892902832514,1.077468094345659,0.645266627899958,1.107310374245375,7.085267839102016e-08,5.501870361039694,0.17197798685570087,0.03689680716739382,0.1096422699198023,0.22130528210025768,-0.040090497737557976,46.413529574388576,-162.58,211.2,32.74945454545455,0.011639568991388452,32.71,32.77,-2.8748369145496112e-05,6.503670035116259e-06,-6.400149292581041e-05,3.310422047886746e-06,-0.009880834164003175,0.012218463711223594,-0.040609173879200364,0.028872837404516752,-2.466749982796368e-05,5.5804654052000945e-06,-5.491639570045608e-05,2.8405032258856597e-06,-0.03585115202235669,0.008110514441781047,-0.07981417105535148,0.00412831919251818,0.013054799053336383,0.008741454584079888,4.44388783194535e-05,0.0406091767490576,0.0497737556561086,1.7131393278219862e-06,False,False,True
0,0.34091391121146736,0.0020866508217418944,0.3356551192451996,0.348414570373409,0.7808315395980923,0.22161337823237898,0.42563387389711355,1.1868066041191376,0.5560794560377396,0.9999534356988661,8.978425114491984e-08,4.889693282726329,0.2716982938430495,0.19369946642218566,0.061867095409313455,0.5840637443458825,-0.2668061051441489,37.18201653403981,-119.63,190.11,32.74963963963964,0.013206604954130096,32.71,32.77,-2.4165956122195875e-05,6.896132969237689e-06,-5.8484122845999165e-05,-5.517370079811242e-07,-0.007266285205897577,0.015541728151395907,-0.04889922929464529,0.040554369949330316,-2.0735566441000537e-05,5.917217702727873e-06,-5.0182223657313313e-05,-4.734172043142766e-07,-0.030136574437238196,0.00859994214611856,-0.07293363906782117,-0.00068805319875303,0.014730571347240465,0.00878462483565496,2.66633269916721e-05,0.04889925653799057,0.06331260599208592,-9.477009477021059e-06,False,False,True
0,0.3408848728166262,0.0014466282209611334,0.3373286443889775,0.3437492649762883,0.506362149074917,0.07714340421902757,0.3542163065340266,0.6647606797295781,0.3903420193779732,0.7087575750808616,9.106238252343246e-08,2.8461638483406375,0.5452997070654003,0.062487254129158155,0.4494394924309426,0.63769378083343,0.39717760180995504,37.192453698567796,-113.67,119.73,32.766363636363636,0.010897964857334857,32.75,32.79,-2.507969252455375e-05,5.9135811382249054e-06,-4.579417166243331e-05,-3.86215905586787e-06,-0.010061635244555653,0.012428851283996813,-0.04406681672877797,0.034391966487920755,-2.1519596743168072e-05,5.074140413723798e-06,-3.929362795808496e-05,-3.313920430199936e-06,-0.031276065255082586,0.007374633855230592,-0.05710841549650149,-0.00481637239127121,0.012766637713359398,0.009625852217481065,2.863838825031448e-05,0.044066829976153375,0.12217194570135748,0.00010170637693573986,False,False,True
0,0.3421215323920374,0.0020432757645989347,0.3368193817563208,0.34643666787276073,0.5349105478605982,0.05156422813967892,0.4225290219285033,0.6605112795304433,0.4104877870366624,0.7137673801422331,7.99185748689979e-08,3.4629312028113652,0.5655897380093707,0.07971414526726561,0.4637454665061158,0.7176175522213826,0.9352854720180891,38.251798682170325,-160.39,199.6,32.78675675675676,0.014152555963317036,32.77,32.81,-2.346035632467535e-05,5.305231500357168e-06,-4.138027559858432e-05,4.413896063848994e-06,-0.005458985218888147,0.008801371319095568,-0.042002657132518884,0.022010350613407077,-2.0130127475198354e-05,4.552146817791586e-06,-3.550629032357074e-05,3.7873376345142126e-06,-0.02925664397997206,0.006615980895142288,-0.05160398990647725,0.00550442559002424,0.007072744714513091,0.00756432862571625,7.900245034569513e-06,0.04200267103091711,0.03617863199547767,0.00023674973674970323,False,False,True
0,0.35007221858442233,0.0033595853421306593,0.3398816938359865,0.35565192344669433,0.5051651135690586,0.08903900897853242,0.29060969540861886,0.7120645871305628,0.4173884727918107,0.7127557160598338,7.311915339869302e-08,2.907168511384847,0.910326683681389,0.09749812633297138,0.7209262403790324,1.0269671638769868,-0.7121549773755654,45.00832526956276,-175.02,220.18,32.81234234234234,0.01341335528188541,32.79,32.83,-2.8012511755892327e-05,5.282289595384175e-06,-5.075980473426343e-05,-5.517370079811242e-06,-0.009034664766466045,0.014247606831674293,-0.05920532378256097,0.021285538681204624,-2.403609837560335e-05,4.53246154680768e-06,-4.355438279691344e-05,-4.7341720431427655e-06,-0.03493348831044513,0.0065873707949064605,-0.06330089428527876,-0.006880531987530299,0.012850416484977608,0.010926715122622768,4.6413939578095886e-05,0.05920533449965972,0.06787330316742082,6.353106353106547e-05,False,False,True
0,0.35165118795280437,0.002040133894108982,0.34605462336953957,0.3560363938508097,0.7890425005069712,0.17475366258847577,0.4612420296347227,1.1309770289459398,0.6029246752029436,1.1234477927320201,5.226313959383333e-08,4.705725542022908,0.6889846043468065,0.1526586293909513,0.4521551365951193,0.8780572028977198,-0.02622950819672162,42.40697712533675,-150.0,132.01,32.81545454545454,0.0175382341770303,32.77,32.84,-2.9063558273358632e-05,6.527011617083445e-06,-6.455322993379153e-05,5.517370079811242e-06,2.3948070526159957e-05,0.0145272364071555,-0.049581267427924784,0.057115098902583206,-2.4937947439025568e-05,5.6004936184961575e-06,-5.538981290477036e-05,4.7341720431427655e-06,-0.03624421408725519,0.008139622966139862,-0.08050222425410451,0.006880531987530299,0.010936869746350364,0.00955469150200125,4.44388783194535e-05,0.057115099365278345,0.07235726399095534,0.0003635461984085531,False,False,True
0,0.34973545246004234,0.001680216847645166,0.345439002422687,0.35371318782994626,0.704140256328356,0.08999122709964243,0.5262456150851895,0.8671347581635456,0.5261722950498435,0.9753874918998102,7.35891632075436e-08,4.9066245026218684,0.6978994252506984,0.06764075921104912,0.5861975456001112,0.8126735003127863,2.0909671945701356,48.56851624634323,-174.02,210.08,32.843423423423424,0.01739882417633545,32.81,32.87,-3.445547683891172e-05,2.969785150583407e-06,-6.786365198167829e-05,-2.1517743311263846e-05,0.0011024235960326435,0.010140598390676466,-0.030312436159799085,0.025425888004669887,-2.9564475977567463e-05,2.5482201901731943e-06,-5.823031613065602e-05,-1.8463270968256787e-05,-0.04296829958954867,0.003703522045666491,-0.08463054344662269,-0.02683407475136817,0.00836585262390058,0.005829560670372262,6.023936838859253e-05,0.03031246448510047,0.09502262443438915,0.00031177606177604456,False,False,True
0,0.35973464629073376,0.027436903152775527,0.3431499112541156,0.53314789292112,14.648612865992545,10.044343766073284,0.5762423412916022,29.541691493690386,12.926891860487673,16.354296952650305,2.225988282589242e-09,116.7628608588916,-12.84852925927404,9.452522333407716,-25.144269401178665,0.6358899870887731,-3.3498868778280544,66.942032453351,-191.14,278.21,32.86827272727273,0.01905371888904792,32.84,32.91,-2.8684707183036755e-05,9.486900586116663e-06,-7.06223370215839e-05,4.08285385906032e-05,0.005678273996421148,0.017533596039050137,-0.036526970188646,0.05915185653390726,-2.461287476592742e-05,8.140222403280359e-06,-6.05974021522274e-05,3.5032873119256466e-05,-0.03577176126865442,0.011830803807079187,-0.08807080944038784,0.05091593670772422,0.01582096083667789,0.009440424606835281,3.752616391420519e-05,0.05915186082730244,0.1085972850678733,0.0003608863241890702,False,False,True
0,0.3707667134778928,0.001798875248930877,0.3668196119995553,0.3755900208297978,5.343235738065127,6.16450498352664,0.8942582417594526,22.41700613140742,2.6455253985321256,3.4487209455391494,8.919656835360001e-08,20.079018218129818,-3.1083405845644023,6.1391257189732515,-20.055293960661224,1.3419932955370246,0.7760260033917472,44.53984217957756,-210.74,263.12,32.88423423423423,0.013983727526830454,32.84,32.91,-3.379560617587431e-05,1.313655097781364e-06,-3.917332756665982e-05,-2.6483376383093966e-05,0.010324952794289029,0.0043006451217250715,-0.008299412183959324,0.026112604522206574,-2.899827483465833e-05,1.127180005743112e-06,-3.3612621506313634e-05,-2.2724025807085277e-05,-0.04214539644203729,0.00163821635854018,-0.04885177711146513,-0.03302655354014544,0.010610061849490532,0.003538646988078255,6.221442964723492e-05,0.02611262982307798,0.04974561899378179,-0.00023832923832925156,False,False,True
0,0.34509904352237636,0.018051904336849122,0.305867111162288,0.37914484196442283,3.425127874546667,1.090215662633254,1.1280341380964185,4.942829737561565,2.500804101958295,3.3125681905574127,1.386382564305677e-08,19.81501339149804,-2.2062275543695584,0.7635717741769324,-3.3636842636645516,-0.6189111365194027,0.38498868778280526,21.73660032697458,-116.19,65.5,32.89690909090909,0.017648216613150604,32.87,32.95,-2.9409954245563974e-05,3.858950653225473e-06,-3.6966379534735316e-05,-1.4896899215490354e-05,0.007069068688257938,0.005073410261691435,-0.0069239741270614346,0.023373758539357883,-2.5235172041281704e-05,3.311167464588955e-06,-3.1718952689056526e-05,-1.2782264516485466e-05,-0.03667619318828227,0.004812371297146555,-0.046099564316453005,-0.018577436366331808,0.007448161745410385,0.004497933651964845,5.5301715241986593e-05,0.023373768714951025,0.07239819004524888,0.00037580866938664056,False,False,True
0,0.299732448953315,0.002056405264923215,0.29533131596319345,0.3054214910895662,0.590384267319118,0.22217980822068387,0.2886344126948763,1.1099737295518,0.42680121687623934,0.7791564920392626,4.2107682673986346e-08,4.339263102328239,-1.1693143002244766,0.187221312480739,-1.4808014908897151,-0.9256042739242952,0.2570209157716225,19.60460209500043,-104.83,66.83,32.95324324324324,0.019172051730776754,32.91,32.99,-2.5376781682697434e-05,6.498525011975216e-07,-2.7035113391075092e-05,-2.2069480319244968e-05,0.007264647704891982,0.0009110008616902029,0.004784292042078987,0.013042267108331689,-2.1774513699337298e-05,5.576050724951481e-07,-2.3197443011399553e-05,-1.8936688172571062e-05,-0.03164655543902652,0.0008104098251497188,-0.03371460673889847,-0.027522127950121197,0.007264725923779015,0.0009109911753134979,0.0047844193058796435,0.01304230998368694,0.2577727529677784,0.0004608634608634663,False,False,True
0,0.3083310313824485,0.007059654139002558,0.2955612632236207,0.3177361576529619,0.5846119741388652,0.23814368571932415,0.2609881479304098,0.963214297585995,0.4351338824252473,0.880243177237657,6.925312057148858e-08,4.976434592944679,-0.8218400385239188,0.4963805339128889,-1.5312890903894276,-0.23243058951033713,0.09379524886877827,15.699180871682799,-60.35,44.33,33.00018181818182,0.017815662534025344,32.97,33.03,-2.412039412945535e-05,6.381629932561215e-07,-2.6483376383093966e-05,-2.2621217327226096e-05,0.010854320347307954,0.0012779762166155544,0.00753784151830745,0.013732993669517404,-2.069647203385694e-05,5.475749057864161e-07,-2.2724025807085277e-05,-1.941010537688534e-05,-0.030079755564490492,0.0007958322216636667,-0.03302655354014544,-0.02821018114887423,0.010854367910158468,0.001277967723474258,0.007537915702674641,0.013733027614742786,0.26696832579185525,0.00041782566553208477,False,False,True
0,0.30794686417347966,0.008031935651623159,0.29719581672000017,0.3214839743731965,0.6739297782869588,0.18573025535978113,0.3581792025327626,1.069757700462812,0.513682847667146,1.0015848996581296,3.683864235881629e-08,5.182815839690797,-0.9268984418134426,0.3604210360005751,-1.3892151617891801,-0.2568290073615429,-0.24561899378179763,14.367829739320431,-35.37,34.25,33.06891891891892,0.021881970633850438,33.03,33.09,-2.4172938697695043e-05,6.078244599947917e-07,-2.6483376383093966e-05,-2.2621217327226096e-05,0.00999452616133512,0.001300221064778927,0.0061617351208013895,0.013044940470764375,-2.074155783060086e-05,5.215429677583154e-07,-2.2724025807085277e-05,-1.941010537688534e-05,-0.03014528217903953,0.0007579980279192311,-0.03302655354014544,-0.02821018114887423,0.009994577989495377,0.0013002130514554095,0.006161825872614925,0.0130449762064202,0.2532504239683437,0.0005286065286065587,False,False,True
0,0.3164198830425672,0.008907331064766865,0.30160157689824474,0.3276157967001007,0.7827137000785406,0.28132670064939147,0.379551646534579,1.3094563219043893,0.6110988715759105,1.211818978621634,6.594585144625853e-08,8.81088719731943,-0.7004077622659972,0.2348187750144808,-0.9257258327506657,-0.13425787321009408,0.08962104072398176,20.209186156781936,-89.49,104.25,33.11327272727273,0.017032569497477442,33.09,33.13,-2.138480215436342e-05,5.0489641482887165e-06,-4.193201260656545e-05,-8.276055119716864e-06,0.014420877904747983,0.007714284845332983,-0.02206381786206078,0.02751210284099863,-1.8349200985769297e-05,4.332256957915774e-06,-3.5979707527885024e-05,-7.101258064714148e-06,-0.02666828817746048,0.006296398252006086,-0.05229204310523028,-0.010320797981295449,0.015237635233451409,0.00593799531343699,4.147628643148994e-05,0.027512105002246542,0.26696832579185525,0.00025318395960598065,False,False,True
0,0.3301075587473318,0.00195163537569343,0.3240002307587056,0.33348962085223566,0.4823821638907734,0.20962697171306685,0.22276029345793527,1.083989476297883,0.40387568445603433,0.7244406848404279,5.3517910103551e-08,4.046696982946184,0.14252042237648518,0.20626832309911455,-0.37512988449361373,0.3681077033425577,0.08184389140271481,18.714367743501267,-70.44,58.95,33.15099099099099,0.01953807262081472,33.11,33.18,-1.774483583021645e-05,5.661901796088301e-07,-1.9862532287320473e-05,-1.544863622347148e-05,0.019044739326723195,0.0006300219057718479,0.016490553189394897,0.021998988823068163,-1.5225932732872395e-05,4.858187289654865e-07,-1.7043019355313955e-05,-1.3255681720799745e-05,-0.022129005083424656,0.000706077276940132,-0.02476991515510908,-0.01926548956508484,0.01904475371979669,0.000630021142485934,0.01649057171482236,0.02199899824107764,0.24886877828054302,0.0004904352404352056,False,False,True
0,0.3291081526816652,0.0021008415835422575,0.3256015722166416,0.33493861619188076,0.7801123753270076,0.2699480949672256,0.4004764401374634,1.2150338323961147,0.5612512023806705,0.924268994826557,4.083239346641676e-08,4.484921715813087,-0.19503423618557267,0.22060239719963493,-0.5305820387220208,0.0896808884815079,-0.18929338609383858,19.634722421184758,-75.13,47.16,33.17318181818182,0.0144585340775992,33.15,33.21,-1.8005725048922463e-05,9.667517837258796e-07,-2.0966006303282724e-05,-1.3793425199528107e-05,0.018052038880134583,0.0011033450623980404,0.01511244177006432,0.022687710362429364,-1.5449788379256295e-05,8.295200794886752e-07,-1.7989853763942512e-05,-1.1835430107856916e-05,-0.02245435150545946,0.0012056045680654173,-0.02614602155261514,-0.01720132996882575,0.018052054640501143,0.0011033430250183796,0.01511246570952356,0.02268771885389488,0.2532504239683437,0.0002042693235354015,False,False,True
0,0.3298793733107975,0.0013646588971334063,0.32610593022875667,0.3327728818925449,0.46599892735580556,0.05166888069086375,0.33580118291901057,0.5755099604350704,0.35340138232503193,0.6506196079140915,4.7467796804312457e-08,2.713177409944299,0.14970505046738206,0.026216853651088855,0.09371058986884662,0.2176120517676614,-0.0950904977375565,17.269341382186177,-38.22,33.4,33.19216216216216,0.017077651818859826,33.16,33.23,-1.7605653304447458e-05,6.964048661117424e-07,-2.04142692953016e-05,-1.6000373231452603e-05,0.017953674230913097,0.0008057016708487378,0.014427061933743976,0.02199765214185182,-1.5106507352146058e-05,5.975492671623692e-07,-1.7516436559628233e-05,-1.372909892511402e-05,-0.021955435102291258,0.0008684637586822034,-0.02545796835386211,-0.01995354276383787,0.017953689284630273,0.0008057007186683322,0.014427081881569258,0.021997662953998905,0.24434389140271495,-2.729027729027055e-05,False,False,True
0,0.3342126750762391,0.001987292640008426,0.329015829339598,0.3388275123337075,0.5345248716216295,0.13482620533886275,0.2878822642417426,0.7820882277449857,0.42573316110396014,0.7024711013788396,5.639629385711942e-08,3.5524619250435077,0.2527300720119129,0.1183788500010697,0.09750636541256763,0.4188170509109366,0.18551158846806076,23.582991567401,-84.45,76.79,33.19418181818182,0.01731424709963461,33.16,33.23,-3.0053769427961644e-05,8.151676943286872e-06,-4.193201260656545e-05,-6.069107087792367e-06,0.01175612680563598,0.006058962396916733,-4.411048013930639e-05,0.03092697189165327,-2.578759680042749e-05,6.994535536206131e-06,-3.5979707527885024e-05,-5.2075892474570424e-06,-0.03747907407038114,0.010165690020600793,-0.05229204310523028,-0.00756858518628333,0.011756478994482756,0.0060584173229322824,6.418949090587729e-05,0.0309269958943503,0.22611644997173544,2.524626377830734e-06,False,False,True
0,0.3349924371182343,0.0017222698693924528,0.33199693135561986,0.34222426732302785,0.500954286354498,0.22838203319884087,0.13701250363299378,0.9450971388615814,0.38322749482048657,0.7960824839722566,4.5589944264179394e-08,4.621587086497547,0.3164100169426086,0.1895435452752852,0.043924224730151895,0.6126489370658104,-0.10465497737556556,17.43288041695584,-57.81,54.86,33.126936936936936,0.028692501167718498,33.07,33.16,-3.534986499777705e-05,3.2033608419945233e-07,-3.6966379534735316e-05,-3.3104220478867456e-05,0.008011449123677317,0.000638214507108345,0.004772261911131904,0.01303224199920912,-3.0331904545194567e-05,2.748639500866613e-07,-3.1718952689056526e-05,-2.8405032258856593e-05,-0.044083661844993335,0.0003994806660078059,-0.046099564316453005,-0.041283191925181796,0.008011585428607797,0.0006382033670705254,0.00477250312290295,0.013032317453709752,0.21266968325791857,-0.0008160758160757632,False,False,True
0,0.3164819377000793,0.0014179487909692652,0.3130721064168226,0.3198548553082899,0.410008861943127,0.06741040430253191,0.26649195947220905,0.5621417703795208,0.3034226990483759,0.5889824871870387,5.507355460565577e-08,2.713924538890881,-0.3249892051197173,0.05093455078134922,-0.39268274205177933,-0.17972609292889885,-0.03809389140271478,18.868347021970173,-67.51,140.81,31.99018018018018,0.009143500620856882,31.97,32.0,-9.053729680740034e-06,1.0723811555423156e-06,-1.3793425199528107e-05,-4.965633071830118e-06,0.003951565481888623,0.0010200402464626565,-0.0013867998472368009,0.01031077287217288,-7.76854068527477e-06,9.201552211874197e-07,-1.1835430107856916e-05,-4.260754838828489e-06,-0.011290610521619292,0.0013373315070041557,-0.01720132996882575,-0.00619247878877727,0.003967412806788563,0.0009565510115427251,1.185036755185427e-05,0.01031077863900155,0.1719457013574661,-7.722007722008429e-05,True,False,False
0,0.3190337370466399,0.0012118714684842397,0.31394845912341646,0.3214115280684844,0.451740390345181,0.09054559630109703,0.29643552197924783,0.6357181784479244,0.35557664470978406,0.5847228450056534,4.4280305644406326e-08,2.85048394089071,-0.26564237197854657,0.09097442549376891,-0.4053684689415117,-0.1423906159750956,0.06757490107405305,8.872273550246883,-36.88,14.59,31.967999999999996,0.01816337680280624,31.93,31.99,-8.545058117952005e-06,2.89356038885564e-07,-9.379529135679113e-06,-7.72431811173574e-06,0.0037926218075122527,0.000394487787975329,0.002741519345281379,0.00480634728214864,-7.332075728808553e-06,2.4828156349690346e-07,-8.048092473342702e-06,-6.627840860399872e-06,-0.010656262832723681,0.00036084646353925576,-0.01169690437880151,-0.00963274478254242,0.0037926386992770613,0.0003944862578321996,0.0027415440222931533,0.0048063596533730255,0.17637083097795364,-0.00021360142461059438,True,False,False
0,0.3198916979442866,0.0009941470278410393,0.3170719492973744,0.322243685209233,0.2690036213658825,0.05263052229038461,0.15766983362477838,0.39475405236303107,0.20211539510557505,0.38949169559254043,6.773330785136977e-08,1.886312836057396,-0.04880915752039059,0.04505576641025364,-0.14068149142439546,0.009435661209123536,-0.3227658371040723,13.271083576537674,-46.6,80.4,31.952162162162164,0.012461242124385059,31.91,31.97,-8.440827257846973e-06,8.899123468902184e-07,-1.2138214175584734e-05,-4.965633071830118e-06,0.004267535907196543,0.0009984399746812552,-9.356768514398326e-06,0.008241934891656592,-7.24264057821977e-06,7.635881031274547e-07,-1.0415178494914085e-05,-4.260754838828489e-06,-0.010526279932054274,0.001109780616544357,-0.01513717037256666,-0.00619247878877727,0.004267596463192758,0.0009982435388083335,9.87530629321189e-06,0.008241950410582,0.16742081447963802,1.298701298701271e-05,True,False,False
0,0.32002854232758127,0.0008644362297917888,0.3172810901228469,0.32216707318051707,0.2622653719891852,0.05608454672112231,0.17651769279978144,0.42271725879120686,0.19994040254988626,0.40220924670380503,7.249512190554697e-08,2.0733549481198965,-0.036886612908931145,0.039649731012981984,-0.1557381538354652,0.002770874476821783,0.5222046353872244,19.747276491892265,-103.66,110.42,31.948545454545457,0.009270290281408721,31.93,31.97,-8.701858934915857e-06,4.4377585712561824e-07,-9.931266143660237e-06,-6.620844095773492e-06,0.0050857175362906855,0.0005453233523727651,0.0027408510046732074,0.006183122020262871,-7.466618460812059e-06,3.8078128271897543e-07,-8.521509677656977e-06,-5.681006451771319e-06,-0.010851804009259652,0.0005534183743481923,-0.01238495757755454,-0.00825663838503636,0.005085730626084868,0.0005453221334799874,0.0027408788694828156,0.006183130397365429,0.16732617297908423,-5.6263102134660565e-05,True,False,False
0,0.3200364035464233,0.0012722397515169057,0.31615936654901416,0.3231213695306211,0.35784926447373605,0.12547512942491976,0.17494946947044177,0.5929655999603233,0.27878271523654224,0.5726110842679732,8.260111172830875e-08,2.7988933107695964,-0.13211097982511522,0.13850161383522153,-0.31980847492470255,0.05513308112483273,-0.08642533936651581,13.767078382984938,-49.66,54.06,31.96873873873874,0.013692540578200364,31.95,32.0,-8.94263331487958e-06,3.1163500414475686e-07,-9.931266143660237e-06,-6.069107087792367e-06,0.0055807671896016845,0.0004292078515920417,0.0041182940833956105,0.006869838537799559,-7.673214596623253e-06,2.673979999429838e-07,-8.521509677656977e-06,-5.2075892474570424e-06,-0.0111520658730016,0.000388629833314624,-0.01238495757755454,-0.00756858518628333,0.005580779695252331,0.00042920719258008857,0.004118308521503184,0.0068698483855944925,0.14932126696832582,0.00018831168831168668,True,False,False
0,0.32048021986247877,0.0010072415625921355,0.3174217411750776,0.3221826473282777,0.3049048957681853,0.05474215728802114,0.20355528565506315,0.3982296653673374,0.2356485024805802,0.46117987898566987,5.012046155883354e-08,1.9758108652501694,-0.061674707615582344,0.05549413585512522,-0.16320378882107733,0.02943530505966674,-0.2750565610859729,23.272252951504097,-75.76,121.48,31.983090909090905,0.013254423152703754,31.95,32.0,-1.1644521898081262e-05,1.3686117102560522e-06,-1.9310795279339348e-05,-6.620844095773492e-06,0.007240808410464186,0.002080522007281583,-0.009642101551056818,0.010994816027276881,-9.991566494221107e-06,1.1743354538279718e-06,-1.656960215099968e-05,-5.681006451771319e-06,-0.014521502861012761,0.001706750954659086,-0.02408186195635605,-0.00825663838503636,0.007283120380022045,0.0019270648072175136,2.172567384506616e-05,0.010994826627043071,0.14027149321266968,0.00011973942249171941,True,False,False
0,0.31865701721770184,0.000953121791333688,0.315932387983347,0.3214671386980773,0.2997317354123561,0.09910579078258389,0.14769788793114522,0.48513949395409783,0.2205835036900626,0.47901239998146034,7.966131043701807e-08,2.5478544059409476,-0.12813585211022446,0.09152516828903874,-0.27308258621045156,-0.036243062081275035,0.36905031091011853,14.775320742943503,-73.81,68.07,31.991081081081077,0.01090048800837144,31.97,32.03,-1.0635292552034341e-05,3.735015305727105e-07,-1.2138214175584734e-05,-9.931266143660237e-06,0.008098205724255755,0.0005318563970972507,0.006179111976613844,0.009620714651595337,-9.125598598999178e-06,3.2048249048554936e-07,-1.0415178494914085e-05,-8.521509677656977e-06,-0.013262925912614966,0.000465781557394639,-0.01513717037256666,-0.01238495757755454,0.008098217925158128,0.0005318554718832061,0.006179129083824255,0.009620723551458881,0.1628038439796495,-7.844857844858584e-05,True,False,False
0,0.3194816471380737,0.0012226643502537327,0.316262857948754,0.3219587189219683,0.24117796309680448,0.06726431744191545,0.1288568350305004,0.3560037479254037,0.1783824161958718,0.41148504732969626,8.099258952398714e-08,1.9990939460010155,-0.03752751787651239,0.04744268706249364,-0.09857864848851539,0.061721641741363964,-0.15182692307692314,11.57429422038676,-66.73,43.2,31.98418181818182,0.011603686394775093,31.95,32.0,-1.0521075501739609e-05,1.7495870769736466e-07,-1.1034740159622484e-05,-9.931266143660237e-06,0.008134926093794995,0.0002658405397278663,0.007555218374119904,0.008932661452842307,-9.027594811228236e-06,1.5012308594561217e-07,-9.468344086285531e-06,-8.521509677656977e-06,-0.01312048956038442,0.00021818528889580447,-0.013761063975060599,-0.01238495757755454,0.008134937922027314,0.0002658401628609414,0.007555232365431862,0.008932671038232027,0.1719457013574661,-7.934540044632118e-05,True,False,False
0,0.32009808815329455,0.0009197919062272275,0.3169595906094722,0.322015661864471,0.3511580278101132,0.10504554548871112,0.1659526914585796,0.5072056419255222,0.2778416153598144,0.49591537336696573,4.920123508611596e-08,2.034398467998936,-0.1226474900547533,0.10764293612065354,-0.26685705908475255,0.060802679072398336,0.05667608818541547,10.653125756309755,-50.84,31.33,31.965675675675673,0.016821070208176272,31.93,32.0,-1.0188743414051428e-05,2.959039058268482e-07,-1.1034740159622484e-05,-8.827792127697988e-06,0.008282391962640379,0.0002837605322703281,0.007555218374119904,0.009620714651595337,-8.742437706336974e-06,2.538999519985331e-07,-9.468344086285531e-06,-7.574675269028425e-06,-0.012706049070305953,0.00036901209449891287,-0.013761063975060599,-0.01100885118004848,0.008282402869209409,0.00028376005153947937,0.007555232365431862,0.009620723551458881,0.17184850197851892,-0.00031765531765531256,True,False,False
0,0.3199583242449204,0.0009104714095227719,0.31769242439386836,0.3220048355365311,0.2790947260324386,0.06794200365577402,0.16604727533628272,0.39736272038664444,0.22249598445498817,0.4428522028923571,8.225166148179142e-08,1.8945591046025712,-0.05628055784133835,0.07350540572730732,-0.15530227654544304,0.0496235336858899,-0.032007918552036024,15.759413643179979,-98.05,70.69,31.934684684684683,0.01548135651912937,31.91,31.97,-1.006732798499495e-05,2.464925414911278e-07,-1.0483003151641362e-05,-9.379529135679113e-06,0.008224206578274617,0.00033329600727050735,0.007555886714728075,0.009621382992203508,-8.638257359263892e-06,2.1150259668831758e-07,-8.994926881971256e-06,-8.048092473342702e-06,-0.012554635855075083,0.0003073927961844034,-0.01307301077630757,-0.01169690437880151,0.008224217298267299,0.00033329563025961495,0.007555899340771349,0.009621390930111,0.0497737556561086,-0.0003043173043172978,True,False,False
0,0.3195469867403999,0.0010588790770111535,0.31623162306741404,0.3216392950973781,0.35130790155285146,0.048229703874225816,0.20113329206136218,0.41999387900864,0.2579703190302402,0.5164211987359991,5.176360495795507e-08,2.230964799242553,-0.1453221238306157,0.026234242169665366,-0.16093168257909474,-0.04813618747585746,0.07329564725833815,10.943090468790409,-31.39,30.24,31.90127272727273,0.01703256949747727,31.87,31.93,-1.0054845247257818e-05,2.331314863429184e-07,-1.0483003151641362e-05,-9.379529135679113e-06,0.00805298674013717,0.0003430240201282116,0.006868501856583216,0.008933329793450477,-8.627546562786192e-06,2.0003816112670928e-07,-8.994926881971256e-06,-8.048092473342702e-06,-0.012539069040623659,0.00029073066078210384,-0.01307301077630757,-0.01169690437880151,0.008052997660162904,0.0003430236567209341,0.00686851432262185,0.008933338342742271,0.18089315997738833,-0.00034839844014155193,True,False,False
0,0.3191998918535207,0.0009741450353234036,0.3161762947198654,0.3218582937795239,0.21158013706498563,0.04141819235208818,0.13395791039546215,0.30177246424209003,0.16816219904501825,0.336657563013378,5.252182422310625e-08,1.4869271509826327,-0.018369376591519562,0.03455234151226304,-0.06859517517098213,0.04181369451869088,0.4176640271493211,14.73746607115078,-55.13,79.88,31.873423423423425,0.01806531058009919,31.83,31.91,-9.895066204222562e-06,3.474613219169617e-07,-1.1034740159622484e-05,-7.72431811173574e-06,0.007417275916397878,0.0004456391235057436,0.004807015622756812,0.008244608254089278,-8.490448367871651e-06,2.9813872415623504e-07,-9.468344086285531e-06,-6.627840860399872e-06,-0.012339813815645403,0.00043330766385005784,-0.013761063975060599,-0.00963274478254242,0.007417287409300151,0.0004456388058953052,0.004807026397971289,0.00824461863942605,0.16742081447963802,-0.00028588978588978234,True,False,False
0,0.3157415851320294,0.0017655880090290846,0.31180136012805926,0.32044461686682996,0.3416863537126005,0.12225647232181436,0.17269981014969726,0.6359092370864808,0.2829446651964405,0.5344764901807451,4.8897980775564065e-08,2.5255979982802597,-0.28611374080548113,0.1481170670286803,-0.5537620888746665,-0.04001074745787925,-0.3848246606334837,31.040475764386766,-79.86,164.31,31.822909090909096,0.030958553368801715,31.77,31.87,-1.8609265418512673e-05,3.6660606944907593e-06,-3.2000746462905206e-05,1.1034740159622485e-06,0.008635720067144198,0.0030748687312120385,-0.005529822533134749,0.02681402453312303,-1.596765538895302e-05,3.145658492590454e-06,-2.745819785022804e-05,9.468344086285532e-07,-0.023207006984185905,0.004571824530852239,-0.03990708552767574,0.00137610639750606,0.008687790043665137,0.0029244463885354025,1.77755513277814e-05,0.026814033403177923,0.06787330316742082,-0.0008067082929468422,True,False,False
