,EDA_mean,EDA_std,EDA_min,EDA_max,EDA_phasic_mean,EDA_phasic_std,EDA_phasic_min,EDA_phasic_max,EDA_smna_mean,EDA_smna_std,EDA_smna_min,EDA_smna_max,EDA_tonic_mean,EDA_tonic_std,EDA_tonic_min,EDA_tonic_max,BVP_mean,BVP_std,BVP_min,BVP_max,TEMP_mean,TEMP_std,TEMP_min,TEMP_max,ACC_x_mean,ACC_x_std,ACC_x_min,ACC_x_max,ACC_y_mean,ACC_y_std,ACC_y_min,ACC_y_max,ACC_z_mean,ACC_z_std,ACC_z_min,ACC_z_max,Resp_mean,Resp_std,Resp_min,Resp_max,net_acc_mean,net_acc_std,net_acc_min,net_acc_max,BVP_peak_freq,TEMP_slope,0,1,2
0,0.235917037437883,0.007472588812115385,0.22790303585957888,0.2592983603974178,0.021045739972953184,0.031021014458113325,8.907834821372109e-05,0.1103526354302686,0.00804449656002618,0.03837841806847007,4.2290654311827325e-08,0.3393709474791897,-1.11887532666785,0.013112676126683613,-1.146493903524932,-1.1047584399883572,0.10869983041266308,60.71315571824511,-277.9,288.48,29.86225225225225,0.012408551646834024,29.85,29.89,3.292259664479222e-05,2.8522137216488426e-06,6.620844095773492e-06,5.1311541742244554e-05,0.00806379493742694,0.006894972770188546,-0.02197893860482302,0.048195804261904326,2.8249190170106083e-05,2.4473381822812375e-06,5.681006451771319e-06,4.402780000122772e-05,0.04105669477491355,0.0035569025574135665,0.00825663838503636,0.06398894748403179,0.009362341552007403,0.004988814500183063,5.628924587130778e-05,0.04819581689526975,0.09496890898812888,9.582309582309377e-05,False,True,False
0,0.23772747243134543,0.011967430116622123,0.2230736220566264,0.26659111803151625,0.018718812391112765,0.02118080439220197,5.4106892928423943e-05,0.072953774027652,0.01882347873524336,0.0857297283755484,5.924709850502197e-08,0.6188201551262547,-1.1112083482424528,0.015692611024446447,-1.1271224473981323,-1.0812864086672054,-0.9716855203619901,83.01669204031124,-412.89,360.39,29.848727272727274,0.01697862071256436,29.83,29.89,2.7016389284469393e-05,8.437113574621232e-06,6.069107087792367e-06,5.572543780609354e-05,0.014015617089551456,0.016279839228711224,-0.024060475056894567,0.04957391568123489,2.3181376816683004e-05,7.239454057277714e-06,5.2075892474570424e-06,4.781513763574193e-05,0.03369125651722133,0.01052164871902041,0.00756858518628333,0.06949337307405602,0.017417283529336643,0.012569376374963978,5.135159272470183e-05,0.04957392954665204,0.06787330316742082,-0.0003160291233685952,False,True,False
0,0.26583991980877814,0.006785110178568244,0.2439488051749879,0.274168262609579,0.036565716114011486,0.021023748751279502,0.0014796575880064312,0.07821828131831546,0.023815430233701185,0.06769229098463003,1.9200756873338776e-08,0.5872721365550116,-1.052094393803306,0.026215977023531102,-1.080996639364242,-1.0039369881388756,0.9426300904977376,54.26962681469924,-410.39,202.78,29.87108108108108,0.020861070806271424,29.83,29.91,1.7983256120995628e-05,3.1237019417904253e-06,8.276055119716864e-06,4.4138960638489935e-05,0.033072465923747914,0.005980937847545032,0.0020942349236267987,0.044059464982088084,1.5430508945596438e-05,2.6802882877200305e-06,7.101258064714148e-06,3.7873376345142124e-05,0.02242633123944689,0.0038954666478951917,0.010320797981295449,0.055044255900242395,0.033072477185287844,0.005980923914760021,0.0020944904401615587,0.04405947275549883,0.05429864253393665,0.0005486135486135448,False,True,False
0,0.26730274007829147,0.004071034378616632,0.25201035642474967,0.2744546134091027,0.006828632927112294,0.005203939181946965,0.00020180192962377983,0.016541161818155126,0.005228454172206298,0.016793176987543974,2.471355131650199e-08,0.08140790422687066,-1.0181124387885008,0.009922152580160491,-1.0284159432083066,-1.0025249792911366,-2.9549745618993795,127.11105153575281,-585.27,486.88,29.89900900900901,0.015664375039325218,29.87,29.93,1.8017174610909028e-05,3.4748495996929727e-06,7.72431811173574e-06,3.8621590558678696e-05,0.03401631769384451,0.0028035212548406614,0.01379180764303648,0.05025595381451438,1.54596126606583e-05,2.9815900675553555e-06,6.627840860399872e-06,3.313920430199936e-05,0.022468629880183687,0.0043333714209292835,0.00963274478254242,0.0481637239127121,0.0340163266109785,0.0028035173094019534,0.01379184818826066,0.05025596309043222,0.11305822498586772,-4.2997542997542074e-05,False,True,False
0,0.2611030589000485,0.0015707270309534822,0.25699940639285834,0.26416155297251187,0.00216058925155823,0.0020111977722662576,0.00024029835094054343,0.008262803018050036,0.0016255429501310565,0.00828201618646864,5.291902242104962e-08,0.07539485376390073,-1.0304123607608724,0.0026074972217349653,-1.0336610467056724,-1.0256114255268414,3.3001696832579195,106.97190700274383,-440.77,394.06,29.887090909090908,0.01294628667284584,29.85,29.91,1.8979378592418556e-05,1.446120171237532e-06,1.3793425199528107e-05,2.372469134318834e-05,0.033061219114280255,0.0012815729063229931,0.026852119947788793,0.04268269024397386,1.6285230504516784e-05,1.2408414854658023e-06,1.1835430107856916e-05,2.035693978551389e-05,0.02366856303267069,0.0018034092243370125,0.01720132996882575,0.029586287546380288,0.033061228678218646,0.0012815716022959772,0.026852127122340405,0.04268269782852943,0.10407239819004525,5.7705745779139044e-05,False,True,False
0,0.26149294195166173,0.0031101921194205896,0.25542377366275837,0.2706031606984093,0.004208126658036858,0.00336526689388436,0.00022027189323370103,0.013136017366451003,0.0032437741540734064,0.012398222200870956,3.421747606785486e-08,0.07908248037919444,-1.0315641278034344,0.005311225198656182,-1.0398905244943628,-1.0255291187756455,-0.3379310344827609,146.8233493493316,-839.76,444.56,29.885675675675678,0.01125098958246612,29.87,29.91,1.6139555757221597e-05,2.8428634491026593e-06,5.517370079811242e-06,3.531116851079195e-05,0.034250975453557646,0.0021698596478757002,0.022732489183176843,0.05369956151132039,1.384852430584036e-05,2.439315193385517e-06,4.7341720431427655e-06,3.02987010761137e-05,0.02012711274497127,0.0035452421379717847,0.006880531987530299,0.04403540472019392,0.03425098235786846,0.0021698581078619422,0.02273250778342268,0.05369957238235316,0.10853589598643301,4.422604422604328e-05,False,True,False
0,0.26419614625025295,0.0061501916083544035,0.2556166391870866,0.2726000699913771,0.0038977641713859525,0.0055426840305892325,2.2201306598160193e-05,0.01831955056575197,0.002979511713646089,0.018697602500547746,6.65913303249388e-08,0.1667275821934661,-1.0237785967147153,0.016097026500015325,-1.0400029634410108,-0.9988848590374123,0.13030542986425359,40.893219506471404,-176.33,256.2,29.882000000000005,0.01463939638801735,29.85,29.91,1.4632889312350065e-05,1.9908398080537083e-06,8.276055119716864e-06,2.3172954335207218e-05,0.03605100914234174,0.0021426964798130304,0.026854124969613306,0.043372080123943224,1.255573117098214e-05,1.7082374438051141e-06,7.101258064714148e-06,1.9883522581199616e-05,0.01824819824068415,0.0024827112887506092,0.010320797981295449,0.02889823434762726,0.036051014470877635,0.0021426951816948024,0.026854133826422825,0.04337208846534475,0.1719457013574661,0.00018537970831548418,False,True,False
0,0.26948754683057996,0.005509144158246898,0.2516091737453205,0.27502727848814923,0.012698856036171059,0.01747227802707818,2.822802664062928e-05,0.05697656122947799,0.010485121217824392,0.033652551445379424,2.4530955267110244e-08,0.19053148753071247,-1.0179967388967526,0.02207555048669068,-1.0622336751333203,-0.9992695669461635,0.6532843414358394,54.50246158570795,-339.32,284.3,29.90837837837838,0.0185148854385051,29.87,29.95,1.6633779785247883e-05,2.39043208648298e-06,-2.206948031924497e-06,4.193201260656545e-05,0.032363314256600474,0.01077719178229707,-0.006859813428676989,0.05300883495013467,1.4272592574360694e-05,2.051107065713873e-06,-1.8936688172571063e-06,3.5979707527885024e-05,0.020743443385231177,0.002981029765476169,-0.00275221279501212,0.05229204310523028,0.032480596571631735,0.010417999164812402,2.7650857620993297e-05,0.053008844168087606,0.09044657998869417,0.00025061425061424525,False,True,False
0,0.2721980388585458,0.002946465962713853,0.2554653756673995,0.2776129186264406,0.012865068882952885,0.015668771520145314,0.0006074714878818806,0.056395335642501335,0.009269585204547763,0.05513084071603415,6.104662110192893e-08,0.5369828350482051,-1.010868541478054,0.02022007697848145,-1.060579978188251,-0.9963667779299848,-0.7061990950226249,85.92082387894861,-455.18,518.63,29.928,0.015785256156508668,29.89,29.95,1.8058152547418405e-05,2.823982202148378e-06,2.206948031924497e-06,3.2000746462905206e-05,0.034021353989531766,0.0016949687176685563,0.02890759111614166,0.0612754984442936,1.5494773724462627e-05,2.423114164602309e-06,1.8936688172571063e-06,2.745819785022804e-05,0.022519732126155448,0.0035216959516993144,0.00275221279501212,0.03990708552767574,0.03402136253433672,0.0016949683053476836,0.0289075929079437,0.061275512952541085,0.1719457013574661,0.00014543651240898634,False,True,False
0,0.2729387025217754,0.0026110492415712845,0.26191816377815974,0.27593456372026653,0.007714843521278765,0.007586190172386882,2.4905455780962942e-05,0.025033673683730148,0.006191648914015084,0.02343530124313359,4.957389897024267e-08,0.18906191407223608,-1.0035660076110848,0.01028795981927503,-1.019646707359214,-0.9912404706379974,0.08712669683257931,34.62108228765125,-181.69,162.34,29.916126126126127,0.018447526129842066,29.87,29.95,1.951551217822827e-05,2.3607883986039306e-06,3.86215905586787e-06,3.3104220478867456e-05,0.031217201041359142,0.0050971053015448015,0.007575268592365044,0.04475152822449014,1.6745259213233936e-05,2.0256713388399115e-06,3.313920430199936e-06,2.8405032258856593e-05,0.024337157713359432,0.0029440620907090743,0.00481637239127121,0.041283191925181796,0.03121721195153925,0.005097104295321355,0.0075752720809374105,0.044751538641343055,0.12669683257918554,-0.00020954720954720506,False,True,False
0,0.2662935495119082,0.00761545934414354,0.25381909251803775,0.2762242741973663,0.010183995181875837,0.008466945296659624,0.0005442797856926668,0.03392160029935587,0.0076726041295295914,0.02549820358300291,3.53511384609817e-08,0.17560473141465138,-1.0242579522407587,0.0196137076762134,-1.0468115134057003,-0.996150940227653,-0.17561899378179813,30.23867912527976,-290.49,117.8,29.861636363636364,0.0322128036749449,29.77,29.89,2.1873501336772035e-05,3.0208736263224997e-06,1.82073212633771e-05,3.586290551877307e-05,0.030539009233563636,0.003878130879328529,0.007605343919732751,0.034427388540153835,1.8768528667871193e-05,2.592056588687731e-06,1.5622767742371126e-05,3.0772118280427976e-05,0.02727772896323381,0.0037672328148250127,0.022705755558849988,0.04472345791894695,0.03053902449713384,0.0038781198131944347,0.007605449031029087,0.03442739904876138,0.1492368569813454,-0.000754502626062278,False,True,False
0,0.25833271422228515,0.0061069694611014785,0.24479311036502824,0.274748722915829,0.00970563452365614,0.01667766652734365,0.00014350054585180025,0.05447936763113477,0.010312950564386483,0.0560625109810446,3.5483221513810115e-08,0.5629425308377218,-1.0456598735562048,0.004535824676875695,-1.0542210953081406,-1.0379452678258982,0.37288461538461526,35.8956075229109,-248.77,132.3,29.674864864864862,0.06360195630017106,29.59,29.79,1.882708919202558e-05,3.755927849457625e-06,-1.655211023943373e-06,4.027680158262207e-05,0.030481613485574446,0.003982996769385884,0.004865161255667716,0.04474217145597575,1.6154558787488863e-05,3.222768885130131e-06,-1.4202516129428298e-06,3.455945591494219e-05,0.02347864789636329,0.004683894924070998,-0.00206415959625909,0.050227883508971186,0.030481625372173336,0.0039829861182250435,0.0048654507109197115,0.04474217608665664,0.0904977375565611,-0.0019396279396279453,False,True,False
0,0.26782855656350896,0.0066475748646631465,0.24957902185616831,0.27425975201916414,0.024441801356399583,0.017206226654202864,0.0008492000653791321,0.06215093511188401,0.01636612922717107,0.05164424371507178,2.8942132246356778e-08,0.309372976340907,-1.0344137865572958,0.026701502492383823,-1.0695835803639173,-0.9953984002343124,-0.3226455624646705,57.491318698472625,-354.35,247.63,29.647272727272725,0.017236034948637315,29.61,29.67,2.2361246330245157e-05,4.558077431449635e-06,1.3241688191546983e-05,4.138027559858432e-05,0.024675718253333274,0.005526504045291472,0.0027909765502860556,0.04130725218707596,1.918703760942878e-05,3.91105226481148e-06,1.1362012903542639e-05,3.550629032357074e-05,0.0278859798111567,0.005684229463505937,0.01651327677007272,0.05160398990647725,0.024675742949629285,0.005526475550279514,0.00279129505868692,0.04130726047841214,0.11305822498586772,0.00037968577418119354,False,True,False
0,0.27472703200325266,0.004205923449806299,0.25698734251517397,0.28084040371831653,0.008681727335070808,0.0104677514112432,0.00020786483034292114,0.03733640026446139,0.006064755410446769,0.0356690195342479,5.3185446560743976e-08,0.3600594995894764,-0.9995323793313354,0.017692754164729225,-1.0463483117317156,-0.9760543346561896,-0.00825791855203647,26.55112340496854,-205.85,101.14,29.78711711711712,0.06289077671049845,29.67,29.89,2.1179461118587638e-05,1.5261124971313371e-06,1.1034740159622485e-06,2.7035113391075092e-05,0.02623939270475224,0.001602796106953782,0.01720266665004209,0.045424877929863404,1.8173008383711155e-05,1.309478794081028e-06,9.468344086285532e-07,2.3197443011399553e-05,0.026412214079734524,0.0019031650408053006,0.00137610639750606,0.03371460673889847,0.026239407681746162,0.0016027951363973693,0.01720266671149042,0.04542488025694753,0.15384615384615385,0.001901895401895397,False,True,False
0,0.2688532140256917,0.013725000539928115,0.24437440933031057,0.2875668202274139,0.025751161155649203,0.017430202129522957,0.00012912863962059258,0.06569267520684861,0.020427750081844716,0.05624226328907232,3.478317900373895e-08,0.3581600407551555,-1.0327936342840116,0.03855082489282682,-1.079193124017926,-0.974967079585592,-0.1439140271493213,49.850126048699906,-238.12,205.33,29.884909090909094,0.028981026838211632,29.83,29.93,2.0716351548540136e-05,8.295111835348309e-06,3.310422047886746e-06,4.4690697646471064e-05,0.01789891087967308,0.014110600161419266,-0.00343024088464258,0.04818110076852455,1.777563783438854e-05,7.117609654161925e-06,2.8405032258856597e-06,3.8346793549456406e-05,0.025834685263586617,0.010344562988823079,0.00412831919251818,0.05573230909899543,0.01804584962532111,0.013922005704371517,3.160098013827805e-05,0.04818110447632056,0.09502262443438915,-0.0006975182021053453,False,True,False
0,0.2456887689951708,0.005512158996454284,0.2387952589701189,0.2613459192660236,0.015308972652841582,0.018365995349856445,5.569017580825232e-06,0.04954530139186423,0.014386277315971136,0.06682874532302788,4.7399110303381065e-08,0.5399059166938692,-1.0860654841817534,0.0069141979136206145,-1.1010898462978476,-1.0786298024651972,0.06181458451102316,47.171284125866755,-187.38,180.25,29.760090090090088,0.030733324983431655,29.73,29.83,2.235096605521724e-05,5.860161349721409e-06,2.206948031924497e-06,4.303548662252769e-05,0.02347381052574151,0.008442816863064547,-0.002017375753687099,0.048169070637577464,1.9178216633143168e-05,5.02830363539906e-06,1.8936688172571063e-06,3.6926541936513574e-05,0.027873159616000853,0.007308015782081875,0.00275221279501212,0.05366814950273634,0.023479913428586203,0.00842586529810604,6.418949090587729e-05,0.04816907098869909,0.10853589598643301,-0.0008094068094067922,False,True,False
0,0.2518510921647523,0.01089369094958986,0.23429609518714264,0.276788710662878,0.08196236498904062,0.03223629786776341,0.021424589245272893,0.14208632127369958,0.06476973698281628,0.16725073712368912,3.155667593901512e-08,0.970340106629767,-1.1358323231202503,0.025796650879192907,-1.1720330074964553,-1.0839818973201505,0.05767533936651701,87.2814005561775,-334.44,265.5,29.788363636363634,0.0213544689574265,29.73,29.83,2.250263131872337e-05,9.74677112556769e-06,-5.517370079811242e-07,5.351848977416905e-05,0.02674925200438465,0.014649769089886428,-0.01853666758923336,0.048874500692142955,1.9308352810347203e-05,8.363203973287273e-06,-4.734172043142766e-07,4.592146881848483e-05,0.028062296411585683,0.01215487986749287,-0.00068805319875303,0.0667411602790439,0.02799977760796656,0.012086115146181554,6.122689901791373e-05,0.04887450694273773,0.16289592760180996,0.0004420801118048729,False,True,False
0,0.2674579261207191,0.002481913472468107,0.26346036239650183,0.2743182732353523,0.014237992868895712,0.021829694890350623,9.276012849285926e-05,0.0672495490031295,0.006008896088145018,0.027046296384231172,6.767606445384766e-08,0.1833518784482593,-1.025168975706073,0.01887306900679267,-1.081436831649832,-1.0077322113213945,0.0029169022046357388,65.78760885038744,-284.06,372.3,29.884234234234235,0.06251617317360299,29.79,29.99,1.4278455021233548e-05,3.889615467298157e-06,-1.1034740159622485e-06,2.2069480319244968e-05,0.038185200781165475,0.0016730680763097948,0.0330252168589291,0.04818110076852455,1.2251609299898164e-05,3.3374793674323528e-06,-9.468344086285532e-07,1.8936688172571062e-05,0.01780619481473519,0.004850612385032031,-0.00137610639750606,0.027522127950121197,0.0381852058205008,0.001673066687562843,0.033025216890937216,0.04818110447632056,0.09496890898812888,0.0018297648297648317,False,True,False
0,0.2576876427900177,0.008386026656845588,0.2476637272372843,0.27327459520016234,0.010470883163542596,0.011698792148803499,2.3571156379620236e-05,0.046496312770926584,0.008746183202685403,0.030711818435648304,6.21357682398585e-08,0.22477283413504567,-1.0482288974775615,0.019524078482010047,-1.0650125759545146,-1.0080410484735312,-0.05316176470588236,36.96747134813721,-107.45,193.21,29.990727272727273,0.03404554668931799,29.91,30.03,2.3853887678767636e-05,6.680263790056126e-06,1.2689951183565858e-05,4.08285385906032e-05,0.02687230998676267,0.008918070368703564,0.012424389673436648,0.0406131839228494,2.0467796529058073e-05,5.731991441252858e-06,1.088859569922836e-05,3.5032873119256466e-05,0.029747404075952548,0.008330738744679975,0.01582522357131969,0.05091593670772422,0.026872335147003462,0.008918054265403359,0.012424463714651788,0.04061318866643058,0.1719457013574661,-0.0007985032572188701,False,True,False
0,0.26529658469722617,0.011508503066991433,0.24691417365938104,0.28509583315926035,0.016186841983161938,0.014186822304262834,0.0005221119865537078,0.05011951458562945,0.012928050968208479,0.04648114794464234,5.1056054384268634e-08,0.299089698693762,-1.032935813675225,0.02516623065221342,-1.0670469119370487,-0.9936586034738975,-0.20356698699830383,72.97003395831747,-437.6,388.93,29.969819819819815,0.0274352786152157,29.91,30.01,1.7460853546696757e-05,8.28036296988194e-06,1.655211023943373e-06,3.8069853550697574e-05,0.033292103541573775,0.008585752328082836,0.015859308942336427,0.057128465714746626,1.4982262113004754e-05,7.104954409806564e-06,1.4202516129428298e-06,3.2665787097685084e-05,0.02177486005465471,0.010326170160509374,0.00206415959625909,0.04747567071395907,0.033292117192962364,0.008585737128317132,0.015859352283580357,0.0571284698780284,0.07235726399095534,0.0007132327132327139,False,True,False
0,0.2847575289961354,0.0035553708431736216,0.2793612592463785,0.2927865525264704,0.004582171956862859,0.0034108031979889473,0.0004727586135499106,0.015121534469322809,0.002461645406673187,0.008326642506356103,4.6719954224783145e-08,0.041243992875595964,-0.967973927860597,0.01110016255425294,-0.9929284585878625,-0.9510024597515079,-0.19554864253393564,67.51474711599572,-322.28,291.38,29.974181818181815,0.01650030959853089,29.93,30.01,9.07682274555372e-06,1.7458229905125695e-06,1.655211023943373e-06,1.1586477167603609e-05,0.03866728709675777,0.0006890484831569611,0.037164897841786185,0.04197726018940838,7.788355658758511e-06,1.4980010900851635e-06,1.4202516129428298e-06,9.941761290599808e-06,0.011319409128354429,0.002177158819695941,0.00206415959625909,0.01444911717381363,0.038667289024779096,0.0006890479240744999,0.03716489944169576,0.0419772606993457,0.06334841628959277,-0.0003766201564366686,False,True,False
0,0.2843906666932208,0.004905679899966906,0.2745190344331655,0.2917515941810419,0.005242780747828083,0.003905752987111962,0.00021451387069423516,0.013530408277654006,0.003957979722990335,0.01581218088611378,3.275632354249325e-08,0.12069246014671331,-0.9697189618026244,0.013655269415508382,-0.9871886758009429,-0.9504070121248405,0.49586538461538526,71.31732178888775,-472.48,297.24,29.96135135135135,0.03752542135882398,29.91,30.05,1.6696285860297575e-05,5.848434592593241e-06,4.413896063848994e-06,3.0345535438961837e-05,0.03558339081881661,0.0028260924940108753,0.024105922218250215,0.0474983942946369,1.4326225828745716e-05,5.01824150707527e-06,3.7873376345142126e-06,2.6037946237285214e-05,0.02082139266950487,0.007293391726351844,0.00550442559002424,0.03784292593141665,0.03558339879611506,0.002826088173575501,0.02410593642605545,0.04749840072632164,0.0904977375565611,0.0007300807300807451,False,True,False
0,0.2865232864449621,0.002671159364446472,0.2793521552625359,0.2909507725349664,0.0008588576731841525,0.0013728373708932927,4.139787586634545e-06,0.005230041970780719,0.0006251172586884834,0.005420168087317311,5.751089588758307e-08,0.05643388095403676,-0.959213923828771,0.006178483900089725,-0.9718453935592518,-0.9487292753759823,0.19752402487280948,13.489962171423675,-53.25,74.35,30.154324324324325,0.03622208320954717,30.05,30.21,2.2140551527052708e-05,5.502731046027773e-07,2.0966006303282724e-05,2.482816535915059e-05,0.033163772752101965,0.0006166010343172752,0.029615694533139825,0.03442872522137018,1.8997670727703068e-05,4.721611039716527e-07,1.7989853763942512e-05,2.1303774194142445e-05,0.027610758531655486,0.0006862276126720409,0.02614602155261514,0.03096239394388635,0.03316378560723055,0.0006166002154928374,0.02961571180858218,0.0344287368962944,0.1537591859807801,0.001019129519129543,False,True,False
0,0.29306223066417736,0.0020182142906642457,0.28862317416025557,0.29696796370002665,0.0019497365086939367,0.0015238225891477319,8.032514473114393e-06,0.005338113734918867,0.0015346136895524115,0.007118842151953525,5.5410923897880604e-08,0.048926076798415166,-0.9426351516826993,0.003965153374333735,-0.9486191569544569,-0.9349911723734528,-0.22777714932126686,10.976924140686105,-52.25,25.87,30.196363636363635,0.014317966690203469,30.17,30.23,2.335707471682988e-05,2.6555670402100595e-07,2.2621217327226096e-05,2.372469134318834e-05,0.03186554225381621,0.0003078021632236013,0.030991132590037714,0.03236723898754377,2.004150682924567e-05,2.2786057593736702e-07,1.941010537688534e-05,2.035693978551389e-05,0.029127844860785797,0.00033116709049579705,0.02821018114887423,0.029586287546380288,0.03186555712094458,0.00030780190107374157,0.03099114835689821,0.03236725408407006,0.16289592760180996,-1.7221558505961805e-05,False,True,False
0,0.30010494779744973,0.002746052597741455,0.29101090898538784,0.30518573125334963,0.0025763110989900054,0.003151262894090319,1.7840866555480457e-05,0.012989378438328779,0.0020872377991344162,0.011673403428504757,5.227431584819975e-08,0.11328884844940729,-0.9235716311765064,0.006813367159308293,-0.93482103254706,-0.9128993125774797,0.05581684567552284,15.869799102530276,-74.15,50.69,30.186216216216216,0.012508473786274238,30.17,30.21,2.2433352124282295e-05,6.237413046880889e-07,1.9862532287320473e-05,2.372469134318834e-05,0.03308019152118289,0.0005337291868605195,0.030990464249429545,0.03511611007951504,1.9248907889895976e-05,5.352003951325967e-07,1.7043019355313955e-05,2.035693978551389e-05,0.027975900591380266,0.0007778474049718088,0.02476991515510908,0.029586287546380288,0.03308020475194462,0.0005337283409347581,0.0309904792917995,0.03511612094643821,0.1582815149802148,-9.44190944190924e-05,False,True,False
0,0.3065613756305852,0.0020064559321502492,0.30223203511994806,0.3106200207917376,0.0023589591557242693,0.001934623230256086,6.363122669463443e-05,0.007045468979209677,0.0019831876247111075,0.007610367910163423,6.812719979820692e-08,0.0474158869889516,-0.9057764590515088,0.004005396942879277,-0.912787042657724,-0.9013636595453107,-0.03375000000000006,12.974922637607358,-62.61,39.77,30.168545454545455,0.016189041691602474,30.13,30.19,2.335020921107446e-05,8.424703855976414e-07,2.0966006303282724e-05,2.482816535915059e-05,0.03201886705970723,0.0010249117086492572,0.030303747731892858,0.03442872522137018,2.0035615891182936e-05,7.228805914734845e-07,1.7989853763942512e-05,2.1303774194142445e-05,0.02911928311283751,0.0010506172964293652,0.02614602155261514,0.03096239394388635,0.03201888190958025,0.0010249102125109311,0.030303764615092748,0.0344287368962944,0.17647058823529413,-0.00023515091405001517,False,True,False
0,0.30749170375591794,0.00855260830700298,0.28134925341654016,0.3172553889970701,0.02387375137261196,0.02375864459730404,0.0003071090093203574,0.07877465792739721,0.01921802273767461,0.05639566896759276,2.4381456409372504e-08,0.3437804724325297,-0.9245222725184988,0.034200261825488874,-0.9737852123480224,-0.8870655440599642,-0.10504239683436972,43.96679720493984,-229.98,271.81,30.12261261261261,0.019804118566679393,30.07,30.15,2.4674177742233825e-05,2.843515594635955e-06,1.7655584255395975e-05,4.744938268637668e-05,0.02786377870412139,0.005769820430171387,-0.009593981027268484,0.035808173321917096,2.117164532468976e-05,2.4398747659911475e-06,1.514935053805685e-05,4.071387957102778e-05,0.03077036101722873,0.0035460554073623563,0.02201770236009696,0.059172575092760575,0.027899363718378867,0.00559511600831634,0.000734449027489852,0.03580818760983584,0.09949123798756358,-0.000436293436293427,False,True,False
0,0.2813191209765298,0.004284728163138972,0.2753028573595573,0.29001869671589825,0.0031708431884143536,0.004730308918232124,2.3236300232352306e-06,0.018481651892776514,0.0023348971445773677,0.009583664456742538,5.801715728583762e-08,0.05369150550682364,-0.9760346605334952,0.009601272816931263,-0.9990756091700422,-0.9633511714541309,0.08873303167420811,6.1078706847969535,-17.46,18.19,30.008727272727274,0.03092189304615771,29.97,30.07,2.335145748484817e-05,3.4007835303967187e-07,2.2621217327226096e-05,2.372469134318834e-05,0.02105671783509585,0.0004123875616455886,0.019981613069381066,0.022045772665640156,2.0036686970830705e-05,2.9180377755148377e-07,1.941010537688534e-05,2.035693978551389e-05,0.029120839794282646,0.0004241006045467486,0.02821018114887423,0.029586287546380288,0.0210567403373533,0.0004123867266417022,0.019981636399322832,0.022045793811186966,0.1719457013574661,-0.0008570204900480369,False,True,False
0,0.2766602861588927,0.0029724655018582725,0.2660401267278086,0.28762332367005644,0.012183845077394055,0.012801404255865635,0.00015915960099020863,0.04303150620609718,0.008485706678978949,0.04357874313601449,2.5686093807486543e-08,0.3348123209480153,-0.9979426414168238,0.010225273929283874,-1.0140522317708942,-0.9852842216328296,0.018042986425339354,32.5843886711978,-310.14,207.34,29.962792792792794,0.009645646325596282,29.95,29.97,1.975518074278116e-05,7.901756076533725e-06,-2.2069480319244968e-05,5.2415015758206804e-05,0.023773440690589412,0.00290382645232788,0.008996822151226751,0.040640585887784415,1.695090650560575e-05,6.780091269596187e-06,-1.8936688172571062e-05,4.497463440985627e-05,0.024636040550826816,0.009854021871977136,-0.027522127950121197,0.06536505388153785,0.023773457932812835,0.0029038206035697854,0.008997000858253409,0.04064061595571763,0.1719457013574661,-9.75780975780955e-05,False,True,False
0,0.29685434829433066,0.012267482777375865,0.2701425228319328,0.3094018029141721,0.01711562852994813,0.020212286407286204,0.0002895426864718436,0.06737500810751487,0.0133587941792527,0.053412424217273845,4.466999145233408e-08,0.4381710044119532,-0.9469569024987882,0.03460767198558776,-0.99418001916546,-0.9047504554165531,-0.06408140192198958,40.68968206493393,-270.27,127.2,29.961636363636362,0.009910357173991892,29.95,29.97,1.3918876713786258e-05,5.1591162517304245e-06,6.620844095773492e-06,4.193201260656545e-05,0.03297024999175183,0.00963697009355054,-0.009606011158215568,0.0516307235308041,1.1943073612457785e-05,4.426772823457449e-06,5.681006451771319e-06,3.5979707527885024e-05,0.01735777645406258,0.006433765341808108,0.00825663838503636,0.05229204310523028,0.03330474579223184,0.008407006700305392,0.0006581597106780747,0.051630731720308284,0.09949123798756358,-8.944390595766551e-05,False,True,False
0,0.311160662928503,0.0023062319526167253,0.3057306209135563,0.31611067490338124,0.0007900340229499646,0.0016195740535287215,1.6962142442022096e-06,0.006351209105623582,0.00024321033708028667,0.0023370787597922493,7.067748550304565e-08,0.024531149665275323,-0.8915617926494792,0.006978500878725116,-0.9046598833921331,-0.8813871821966194,0.0012669683257918282,9.939675892832252,-28.83,53.31,29.96171171171171,0.011271353381178396,29.95,29.99,1.1955966204622644e-05,3.9716398752824183e-07,9.379529135679113e-06,1.3241688191546983e-05,0.03651243589210092,0.0002760410622806352,0.035106084970392464,0.037858297765404586,1.0258800866339685e-05,3.407860301376827e-07,8.048092473342702e-06,1.1362012903542639e-05,0.01490989488157584,0.0004952902344692168,0.01169690437880151,0.01651327677007272,0.03651243929492933,0.0002760410089083916,0.035106088952556264,0.037858301458074096,0.17647058823529413,5.177255177255066e-05,False,True,False
0,0.3150684057237118,0.00804147913864586,0.28283964208183815,0.3205227607498876,0.04612233250268471,0.04915930599780191,4.630431412301528e-07,0.13436201036161,0.040296820023376825,0.1198887441909404,1.749293787600692e-08,0.9993485170269775,-0.9261239320794891,0.04853064945791022,-1.0009561109803067,-0.8751381118578692,0.9009157716223853,74.15198727636496,-459.75,424.38,29.975818181818184,0.016106401837472327,29.95,30.01,1.2445565977770832e-05,3.166246711940725e-06,8.276055119716864e-06,3.3104220478867456e-05,0.03350577370197197,0.012414278626213087,-0.021304920558841593,0.05299880984101211,1.0678901299125314e-05,2.716793771041601e-06,7.101258064714148e-06,2.8405032258856593e-05,0.015520458764640383,0.003948522840915921,0.010320797981295449,0.041283191925181796,0.03513985234140613,0.006466479524635102,2.468826573302973e-05,0.05299881375028332,0.09496890898812888,0.00028852872889570543,False,True,False
0,0.31030948265490105,0.013233869025309191,0.27848341485644024,0.3196523518576401,0.05148157285374402,0.03254042231050954,0.0021661375892804233,0.1145976261562848,0.038187215435747976,0.0899814510397919,3.580968122030015e-08,0.5406654208638457,-0.9446063811079394,0.04444411618965443,-1.0027493514218777,-0.8740992145000127,-0.7142024886877824,57.83963739149651,-210.16,294.06,30.009999999999998,0.026560394301564597,29.97,30.07,1.6598920505947964e-05,8.053912707672646e-06,8.827792127697988e-06,4.303548662252769e-05,0.02857120130671149,0.015244501726933342,-0.02266699180357605,0.05509103974281439,1.4242681616219667e-05,6.910649064142627e-06,7.574675269028425e-06,3.6926541936513574e-05,0.02069997151678375,0.010043771436085043,0.01100885118004848,0.05366814950273634,0.029998424160914115,0.012194623747494774,4.937653146605946e-05,0.05509106324784877,0.10407239819004525,0.0006274131274131479,False,True,False
0,0.30611333766186244,0.008697079484432659,0.2848183307532004,0.3180384198802866,0.02276584516484088,0.0163683216477569,0.0012267916364454541,0.05582226276672481,0.014707687337482712,0.04616958427339737,2.597615200716774e-08,0.27607448445604976,-0.9273525972335994,0.02503100866369575,-0.9649565846994432,-0.8903660602302401,0.03218325791855225,59.92732023610435,-598.44,311.39,30.181272727272727,0.0656667859142678,30.07,30.27,2.3427602185044662e-05,3.050018345743156e-06,5.517370079811242e-06,4.4690697646471064e-05,0.018068760038196886,0.010082406167798473,-0.012360897315660372,0.04544225478567586,2.0102022829344665e-05,2.6170641763410197e-06,4.7341720431427655e-06,3.8346793549456406e-05,0.029215797362436347,0.0038035782423277266,0.006880531987530299,0.05573230909899543,0.019498853580537438,0.006918803272742617,3.357604139692043e-05,0.045442267091242154,0.10407239819004525,0.0019078962198228295,False,True,False
0,0.3044997339263724,0.01063903938973247,0.287931896196356,0.32832648654096364,0.016543396720227414,0.014835093422672984,0.00023438643783497924,0.05529479610817762,0.013682860634302636,0.03458935551629432,2.1833116203850977e-08,0.19510740218150724,-0.9255759737309288,0.03095400384424493,-0.9683183402362361,-0.8857123163102327,1.8404352741661958,51.10426074587937,-260.01,302.65,30.289639639639635,0.019443527921927183,30.25,30.33,2.667061744915091e-05,3.278304976280438e-06,8.276055119716864e-06,3.531116851079195e-05,0.021663952523317404,0.004526277505390498,0.01448520756665488,0.046808336074059355,2.2884687754250753e-05,2.8129452154011794e-06,7.101258064714148e-06,3.02987010761137e-05,0.03326005575691683,0.004088267041704225,0.010320797981295449,0.04403540472019392,0.021663982851886827,0.004526270825161032,0.014485260766194216,0.046808341499637605,0.11305822498586772,-6.353106353106218e-05,False,True,False
0,0.30848903451355253,0.009999587504791855,0.29580040573699323,0.3233977951377523,0.010684611359248754,0.011053594375437419,6.838803359909594e-05,0.034284910343323996,0.007169973250476681,0.0401712293027088,5.6390912939185966e-08,0.3420462245785245,-0.9086511441173334,0.023973997661316793,-0.9381634548785907,-0.866845454092138,-1.7845475113122182,81.99065774365474,-320.26,531.77,30.231636363636365,0.016284583395970116,30.19,30.25,1.913041971903783e-05,8.88801144903543e-06,-1.2138214175584734e-05,3.2000746462905206e-05,0.03129846033967795,0.0059925085384789165,0.018576768025723635,0.055747680932983365,1.6414831141896934e-05,7.626346377438559e-06,-1.0415178494914085e-05,2.745819785022804e-05,0.023856921487532948,0.011083948728470284,-0.01513717037256666,0.03990708552767574,0.03129847382628135,0.005992502541075563,0.018576768039949402,0.05574768344067845,0.05429864253393665,-0.00021179812005499624,False,True,False
0,0.3122940425686241,0.013933379179310928,0.28589928718801233,0.33068662602358695,0.056975396437925305,0.03645425441182316,0.005016880986796491,0.1278929949892185,0.052625874358537696,0.11704789065725138,2.174005558908121e-08,0.6353795025199794,-0.9445513852120071,0.044362329254308386,-1.0073456426360952,-0.8675301262584751,1.1411136235161101,57.47397078817152,-226.54,212.02,30.235045045045048,0.012783076445325533,30.21,30.25,1.6121942402702682e-05,5.838210934763304e-06,3.86215905586787e-06,3.420769449482971e-05,0.035441440764422724,0.005404992789743409,0.015175265787232424,0.0474937159103797,1.3833411190471403e-05,5.0094691111009176e-06,3.313920430199936e-06,2.935186666748515e-05,0.020105147705935994,0.0072806421366540565,0.00481637239127121,0.04265929832268786,0.0354414495243616,0.005404982552724887,0.015175322366649386,0.04749371996674662,0.1582815149802148,-0.0001217971217971192,False,True,False
0,0.3183978431004008,0.01118525371590908,0.28314555952451537,0.332311637733199,0.07149835352464824,0.05050069338940211,0.003262970175737454,0.1689768569175929,0.048599554422977566,0.1411459380566048,2.0958940930015935e-08,1.027023305427265,-0.9422997707138183,0.06664315800401133,-1.032535574994119,-0.8644510593588921,-1.5787160633484154,81.42108458737881,-379.09,272.46,30.242727272727272,0.016418220517790516,30.21,30.27,1.48001579980276e-05,7.083463623024722e-06,2.206948031924497e-06,4.08285385906032e-05,0.03530089130488141,0.008767541294948897,-0.010964740699909173,0.05299814150040394,1.2699255843783304e-05,6.077956520525748e-06,1.8936688172571063e-06,3.5032873119256466e-05,0.01845679355433326,0.008833556084821533,0.00275221279501212,0.05091593670772422,0.03553580671937684,0.007759559934758341,6.517702153519847e-05,0.052998145135473664,0.06334841628959277,0.00025246263778373333,False,True,False
0,0.3219798431820655,0.011756099556230927,0.292369954016093,0.3332457704980269,0.0745862540445814,0.06464508258461993,0.007007595778199278,0.17744967789366214,0.0682178402456056,0.14715312266044295,1.7538243413106613e-08,1.175293076497037,-0.9357374062612609,0.05293341402181465,-1.0094219374693,-0.8765487430679764,0.2698191068400229,42.276352299697805,-229.51,226.66,30.23630630630631,0.015251105946659169,30.21,30.27,1.3848349245571477e-05,5.0489492020956635e-06,3.310422047886746e-06,2.2621217327226096e-05,0.03470352934823856,0.006012904966341048,0.022025722447395014,0.04405144489479003,1.1882557612358789e-05,4.332244133354746e-06,2.8405032258856597e-06,1.941010537688534e-05,0.01726982395241202,0.006296379613096985,0.00412831919251818,0.02821018114887423,0.03470353567552519,0.00601289980689664,0.02202572417513421,0.04405144835026842,0.06783493499152063,-2.632502632502576e-05,False,True,False
0,0.2928263063752828,0.01636362044065652,0.28110085063033385,0.33466823126400336,0.03711836101929112,0.05552339890242637,2.1759552710317496e-05,0.17899670295447861,0.014627767283070817,0.06099700329515105,1.5765596828032358e-08,0.480290556455941,-0.9782023490335211,0.013015210379111903,-1.0060347108104133,-0.9647252407827385,0.031085972850679124,29.065542158746187,-382.28,150.1,30.25581818181818,0.011915745360218494,30.23,30.27,1.9994225170447187e-05,3.4500779083229408e-06,3.310422047886746e-06,4.08285385906032e-05,0.0235402280376788,0.0032777481225770015,0.006913949017938865,0.04886848562666941,1.7156018258153676e-05,2.9603347507923056e-06,2.8405032258856597e-06,3.5032873119256466e-05,0.024934145047571625,0.00430247945385236,0.00412831919251818,0.05091593670772422,0.023540244294561717,0.0032777403889301393,0.006914044573662805,0.04886848900651604,0.08597285067873305,-2.8852872889569522e-05,False,True,False
0,0.30880627091215646,0.01056412186782728,0.28232014467574634,0.3294449551274248,0.02531787639155379,0.031108518678210847,5.6225627959180965e-06,0.10486268987311982,0.02070849587765628,0.071291238416018,4.58555879184969e-08,0.511336511449116,-0.9224141280479449,0.023225600728863274,-0.9645338374553979,-0.8993817319090842,-0.1617081447963799,22.60123080923857,-191.97,147.01,30.255405405405405,0.014509168498434415,30.23,30.29,2.9563491919730673e-05,3.0194185377791073e-06,1.6552110239433728e-05,4.027680158262207e-05,0.016762353541617495,0.004777675183929568,-0.006837089847999164,0.024105253877642046,2.5366914837957397e-05,2.590808051902492e-06,1.4202516129428297e-05,3.455945591494219e-05,0.036867665006034805,0.0037654182214367365,0.020641595962590898,0.050227883508971186,0.01683150096097267,0.004527930666795806,5.628924587130778e-05,0.02410526730746014,0.12669683257918554,-0.00019041769041768636,False,True,False
0,0.3022757476821994,0.0045655063829644045,0.29527998611754097,0.31256334211202497,0.006253752806208779,0.007132506237520001,8.42737235857976e-05,0.021319687182340702,0.003618567011465208,0.012329145960555777,3.9864199663508515e-08,0.07003911663678641,-0.921599723811408,0.005700597256811471,-0.9335593430514108,-0.9107584480331716,-0.5972696438665919,46.536834731514226,-425.32,312.16,30.234144144144143,0.014799783073868674,30.21,30.25,2.9611132958281878e-05,1.2936712169651133e-06,2.5931639375112838e-05,3.144900945492408e-05,0.017476657154229417,0.0019035840667094288,0.013798491049118192,0.022050451049897356,2.540779316758779e-05,1.1100328634442892e-06,2.2250608602771e-05,2.6984780645913764e-05,0.036927076588895665,0.0016132951135988025,0.03233850034139241,0.03921903232892271,0.01747670156069807,0.0019035769989735214,0.013798551109679272,0.022050479825224616,0.1628038439796495,-3.562653562653486e-05,False,True,False
0,0.8897228890096621,0.0479853533786453,0.7826363262492265,0.9712586752274613,0.2913470948010671,0.08989488729248925,0.07947631100739998,0.435083286580883,0.21688388520357899,0.41357427464094704,1.730841248104298e-08,1.6389738801413198,0.4086112329981056,0.13352874725770897,0.20680641195111468,0.5825229865473701,-0.10866026003391697,95.59878300926954,-508.21,332.97,30.13144144144144,0.02733119585737674,30.09,30.17,2.2008314904333038e-05,9.653797652709716e-06,-1.7655584255395975e-05,5.627717481407468e-05,0.01738132262344078,0.01990655305900596,-0.04467934743880764,0.06679128582465675,1.888420526983034e-05,8.283428208821393e-06,-1.514935053805685e-05,4.828855484005621e-05,0.027445850559309214,0.012038935686707926,-0.02201770236009696,0.07018142627280906,0.02353359423861908,0.012011124157778741,2.5675796362350915e-05,0.066791308080729,0.09949123798756358,0.0007523692523692627,False,False,True
0,0.956221306556835,0.04730879641293707,0.8324432796198648,1.0378571074418266,0.3074268104028173,0.10805543627264323,0.12297340537543083,0.490571087808134,0.24126470014872625,0.4039113321887008,1.8357507514110694e-08,1.919644016437851,0.5760815735125467,0.1680936707522233,0.3502209744649456,0.8317672999311985,-4.193682126696833,180.78572480707027,-1056.42,933.71,30.25472727272727,0.04459211867067466,30.17,30.33,3.0439155971990302e-05,1.049765285922291e-05,-3.2000746462905206e-05,6.731191497369716e-05,0.003105869608759855,0.015273793738626227,-0.024714442884630858,0.05572094730865652,2.611827721086795e-05,9.007497044035708e-06,-2.745819785022804e-05,5.7756898926341744e-05,0.037959677039802346,0.01309127994806236,-0.03990708552767574,0.08394249024786966,0.011043606502987996,0.01099311428204323,2.370073510370854e-05,0.05572094867930225,0.11764705882352942,0.0012412145256181686,False,False,True
0,1.0512700117796625,0.052886359896964996,0.9538189329430018,1.1499181983362277,0.21506115461059802,0.0687278960848103,0.06370178087403892,0.34982244139262964,0.160179268796381,0.35432362153825137,2.296923984346222e-08,2.0627700055768754,0.9292593437778578,0.1410179267495818,0.8046533808287328,1.2377511827420433,3.376843891402716,157.64995389643403,-887.58,941.76,30.217567567567567,0.04221624452993473,30.15,30.31,2.4224000852673523e-05,9.978019685973856e-06,-1.544863622347148e-05,7.007060001360278e-05,0.015931622782135182,0.01606863820568291,-0.08525978267185665,0.08743154510603131,2.0785371644621838e-05,8.561626492323615e-06,-1.3255681720799745e-05,6.012398494791312e-05,0.030208960124437332,0.012443262392849841,-0.01926548956508484,0.0873827562416348,0.01785352687825987,0.013899531418270977,5.33266539833442e-05,0.08743156121335548,0.14479638009049775,-0.0006902421902421749,False,False,True
0,1.144360627395256,0.041657708031487356,1.1014328046053232,1.3045906897536321,0.1336121812864625,0.12197083551038504,0.014287601692951669,0.5527132185636963,0.14162215265498307,0.4547336162604247,3.426440953191445e-08,3.908025316604622,1.2666260041977426,0.026745126766681657,1.2284435013901593,1.3014818539131336,-0.9947258338044083,142.40575694798957,-481.93,739.8,30.178108108108113,0.015812165254151318,30.15,30.21,1.8647464006467126e-05,7.799887973675805e-06,-1.434516220750923e-05,4.910459371032006e-05,0.023402402857437433,0.0162992323318875,-0.06533765191660283,0.08744223855576205,1.6000431636434266e-05,6.692683479714084e-06,-1.230884731217119e-05,4.2134131183970615e-05,0.023254643195369355,0.009726985488685095,-0.01788938316757878,0.06123673468901967,0.02708476320055919,0.008918712850681798,4.048875580216875e-05,0.08744226249468236,0.12210288298473713,-0.000350649350649364,False,False,True
0,1.2232060721358757,0.03234342495774777,1.1731895411770659,1.328578206677887,0.23635562054766907,0.12804839667515727,0.06525811589881453,0.6179172832826026,0.13502807643697462,0.2961287762072639,3.094548706172873e-08,1.6005230171355613,1.3805197239070062,0.05123279287728755,1.2889429832197814,1.4936050211866359,1.1844796380090516,162.33137142418198,-486.49,924.55,30.175272727272723,0.012613455092657344,30.15,30.21,2.0423631348604446e-05,9.510633984984508e-06,-2.5931639375112838e-05,5.572543780609354e-05,0.022146739960045028,0.018346210244611173,-0.061205991021043786,0.07779813198288071,1.7524469656986506e-05,8.160586814545801e-06,-2.2250608602771e-05,4.781513763574193e-05,0.025469643464700677,0.011860400953495115,-0.03233850034139241,0.06949337307405602,0.02682129753542996,0.010364418338029627,2.66633269916721e-05,0.07779814959216265,0.14479638009049775,0.00012127223136398345,False,False,True
0,1.2765437547946918,0.058747084053895705,1.199532681382721,1.4038523252568744,0.17714890237498485,0.12289442470376127,0.05274428143845153,0.537470287363839,0.1407856101838639,0.31102363151571016,2.917150321302131e-08,1.5549922094492707,1.586563221629861,0.09394886255973188,1.4964389598046264,1.7387302208276403,2.2945223289994345,94.79757324484437,-355.37,410.4,30.17504504504505,0.013874363138464055,30.15,30.19,1.9785139313350272e-05,8.240855849323744e-06,1.655211023943373e-06,5.68289118220558e-05,0.01872515905397973,0.01581695606604137,-0.042609172777075016,0.06679262250587309,1.6976612417152223e-05,7.07105537766876e-06,1.4202516129428298e-06,4.8761972044370495e-05,0.024673400905510234,0.010276902121062368,0.00206415959625909,0.0708694794715621,0.022889777304120302,0.00875615781413709,4.937653146605946e-05,0.06679264596429271,0.13114754098360654,0.00013794313794314922,False,False,True
0,1.2939726277259023,0.023195010401446323,1.2223579117456336,1.3314379421391356,0.12625814059950613,0.07824764688504834,0.03532215409335058,0.38352540277516517,0.12620574205396373,0.3582500954883171,2.6051844681518332e-08,2.1548450268254005,1.6853676258182269,0.0971304545961961,1.449667091305403,1.7730793983662338,-2.2929128959276026,148.18960031372777,-539.33,674.85,30.176545454545455,0.012148648404179547,30.15,30.21,2.2755406757900235e-05,1.3776365279620545e-05,-2.9793798430980708e-05,6.124280788590479e-05,0.007575134500612498,0.021772926284857084,-0.05843038630474567,0.06540314929620362,1.95252464390206e-05,1.1820791866318582e-05,-2.5564529032970932e-05,5.2549309678884696e-05,0.02837752440422706,0.017180055100014937,-0.037154872732663616,0.07637390506158633,0.018780452735811245,0.013356809217987735,3.55511026555628e-05,0.06540316242415257,0.15384615384615385,0.00022288844307192954,False,False,True
0,1.31311474617796,0.017980495249177303,1.2693385919921876,1.3512249568109818,0.24394632754277518,0.11376434025196079,0.0840770136662834,0.45092836883300147,0.16678015414229072,0.294920704592262,1.7402665974941556e-08,1.8649422678846577,1.6193690875770141,0.14716541567548957,1.4169786114877558,1.834260552213118,2.007834934991521,97.35248016769164,-625.62,320.38,30.18963963963964,0.016176746943904953,30.15,30.21,1.8621903308922237e-05,5.691300226679713e-06,-7.172581103754615e-06,6.620844095773491e-05,0.024399854667646704,0.010422838857258063,-0.06740114317225375,0.060572741752160805,1.597849931397451e-05,4.883412573840065e-06,-6.154423656085595e-06,5.6810064517713187e-05,0.02322276728446667,0.007097434591816961,-0.00894469158378939,0.08256638385036359,0.025850108745091215,0.005973154651922314,0.0013373623398023288,0.06740115008860703,0.12662521198417184,-0.0003415233415233393,False,False,True
0,1.3613975876918112,0.026797011410008013,1.256858645342051,1.4002230109486793,0.26723505669399605,0.13716178335490536,0.0769874605902378,0.5249726279098095,0.22311153780808465,0.4462638834642796,2.286909950299787e-08,2.111313919029615,1.730636156381252,0.12425901964759954,1.5257714256173687,1.892303296621456,0.17241515837103913,186.87379354065004,-671.93,646.33,30.152727272727276,0.01312670021554615,30.13,30.17,1.8842068477310133e-05,1.1416885098882546e-05,-2.7586850399056214e-05,6.951886300562166e-05,0.020416129406276268,0.01797486025343159,-0.05362403902259703,0.06882002336868277,1.6167411743262098e-05,9.796243042074875e-06,-2.367086021571383e-05,5.965056774359885e-05,0.023497328073705002,0.014237624445070186,-0.0344026599376515,0.08669470304288178,0.024995607445416148,0.010719089294575277,6.813961342316204e-05,0.06882002522724202,0.08144796380090498,3.0566012217388226e-05,False,False,True
0,1.3784084698445418,0.020526299578798923,1.338709745357537,1.414917011274085,0.18584212012602788,0.18633407212616937,0.010097081264387213,0.5448181151956069,0.12250965520858285,0.3211123728909201,3.784442093035523e-08,2.725623230111961,1.8578331222045328,0.15761018296468657,1.5865108681329816,2.033258218315199,-2.2725339366515844,116.20834144314507,-555.22,1064.0,30.1718018018018,0.02183401009260645,30.13,30.21,1.9986111390918057e-05,6.907623777062945e-06,-1.7655584255395975e-05,6.841538898965941e-05,0.024000995916902662,0.010695496894128926,-0.06945327263756575,0.08744758528062742,1.714905624044317e-05,5.9270773750667845e-06,-1.514935053805685e-05,5.87037333349703e-05,0.024924026618178195,0.008614271957180817,-0.02201770236009696,0.08531859664537572,0.025334865252653535,0.006965077984232151,6.023936838859253e-05,0.08744761371485588,0.15384615384615385,0.0005356265356265627,False,False,True
0,1.3875146652918766,0.0341048147256684,1.3098144677157335,1.4737972495095244,0.19254638220367687,0.11716210723468139,0.03795201189104164,0.43362947794642975,0.1476468368919737,0.31285501280009403,1.7411375452525135e-08,1.804754040414883,1.876261906557142,0.10849816358383416,1.7312188518806728,2.025665781567384,-2.3678292820802698,134.0955986065438,-777.89,871.98,30.15763636363636,0.01856934796656286,30.11,30.19,2.1608243159858036e-05,9.405483345135108e-06,-2.5379902367131716e-05,7.007060001360278e-05,0.019598330719501348,0.015616090939608985,-0.052949352636007425,0.06195954159939761,1.8540924242720103e-05,8.07036244817329e-06,-2.177719139845672e-05,6.012398494791312e-05,0.02694693415614101,0.011729271025553462,-0.03165044714263938,0.0873827562416348,0.02280458035143156,0.01038050936920381,6.517702153519847e-05,0.06195955313245154,0.18993781797625775,-0.0004371210242770218,False,False,True
0,1.3694807582973065,0.01898077030884873,1.3026349202806407,1.4058088214107989,0.1969020575393069,0.08730350822514299,0.034383058767686325,0.3492872856870186,0.1413694163305334,0.3080095212904715,2.7191226159573034e-08,2.1181706277590493,1.8222420931167582,0.09546538080536754,1.6775781961437248,1.9399516870928646,2.4702375565610835,117.40493355153869,-332.76,645.79,30.174504504504505,0.02218675848906942,30.13,30.21,2.7674853700102973e-05,9.497062973506178e-06,-3.751811654271645e-05,7.007060001360278e-05,0.005720859292076146,0.019048696609637497,-0.06806313108728809,0.05368619469915697,2.3746371330881604e-05,8.148942226234973e-06,-3.219236989337081e-05,6.012398494791312e-05,0.034512405979534054,0.011843476988412281,-0.04678761751520604,0.0873827562416348,0.01496749725742728,0.013089688387127511,5.431418461266541e-05,0.06806315656168463,0.08144796380090498,0.000586697086697113,False,False,True
0,1.4777094646832116,0.09048802491033836,1.3115796810663505,1.5762534963854702,0.19999452934849382,0.17088769629433687,0.003867245030229928,0.5426138621569732,0.16903795494507418,0.3170166581796679,3.1464703287298335e-08,1.5154957824399977,2.116879788360233,0.20555232175644308,1.8641375705635503,2.374150349719489,-0.10362916902204625,30.89666906533769,-160.97,211.63,30.222363636363635,0.0153208661890892,30.19,30.25,2.5000855925490448e-05,3.6470044808695426e-06,1.8759058271358226e-05,3.751811654271645e-05,0.02464859472721308,0.013899398356389163,-0.004089555437244244,0.03649087979580475,2.1451951104419342e-05,3.129307333891886e-06,1.6096184946685404e-05,3.219236989337081e-05,0.031177750707789838,0.004548060149365167,0.02339380875760302,0.04678761751520604,0.02614564356623473,0.01081974625429083,0.000734449027489852,0.03649088918150076,0.09949123798756358,-4.74269098122299e-05,False,False,True
0,1.49929479560484,0.02676843647846999,1.4483146962481894,1.5597874872076514,0.08534350081457927,0.06955714558549132,0.002756406824637554,0.2515693793290079,0.06114911580165263,0.12755629211336428,4.1837509012765395e-08,0.6579861496252812,2.290750449546552,0.03485039414715519,2.2394876061859357,2.3485858724895534,0.020944570135746864,33.059754362820556,-288.61,173.82,30.20765765765766,0.017630291853148024,30.17,30.25,2.3935025474058972e-05,4.771967442480484e-07,2.2069480319244968e-05,2.6483376383093966e-05,0.030639577369391314,0.0005604784333284177,0.028240256476241937,0.031679854129398916,2.0537416706163116e-05,4.094580303692706e-07,1.8936688172571062e-05,2.2724025807085277e-05,0.029848588369886818,0.0005950964708998346,0.027522127950121197,0.03302655354014544,0.03063959362254785,0.0005604776169372384,0.02824027542593228,0.0316798702792284,0.0904977375565611,-0.00029168129168128537,False,False,True
0,1.5385389718604128,0.03851370532824071,1.4774541216034514,1.6423594708162628,0.14456733906077998,0.1013959055456419,0.008420329118073853,0.42460560140901893,0.0980815698510298,0.197793122060039,4.1201482670061296e-08,1.0309937508170375,2.3394805802029897,0.017388064310361388,2.288344796578791,2.3603072973622057,-0.020458144796380293,24.26864866789585,-131.31,147.2,30.152909090909088,0.0196923798677073,30.11,30.19,2.40292701439743e-05,4.907587180505728e-07,2.04142692953016e-05,2.7035113391075092e-05,0.030494920157246263,0.0005914965726179629,0.02617676522059102,0.03580349493765989,2.061828321956974e-05,4.210948639144189e-07,1.7516436559628233e-05,2.3197443011399553e-05,0.02996611781899508,0.0006120091653924087,0.02545796835386211,0.03371460673889847,0.03049493661667603,0.0005914957930787939,0.026176786582761697,0.035803505042369496,0.031674208144796386,-0.0004349570588102936,False,False,True
0,1.4771720917962448,0.02245362341613255,1.4396438038697612,1.5190694984673423,0.05263446915327985,0.035609417437558084,0.009878012896304867,0.13089328987008791,0.041869270990014855,0.1003168929044343,5.359105759161764e-08,0.44081640294378177,2.2625526104946485,0.03668994727749976,2.196065343081456,2.314783023491429,0.055828151498022116,51.55667669659867,-535.11,427.28,30.121891891891888,0.013315303124498884,30.11,30.15,2.2810954940830465e-05,1.4941251495485676e-06,1.2138214175584734e-05,4.248374961454656e-05,0.03215442346637727,0.0016913735769042253,0.017922131857379175,0.04475687494935551,1.957290948334636e-05,1.2820320931220414e-06,1.0415178494914085e-05,3.64531247321993e-05,0.028446796728535905,0.0018632746645833333,0.01513717037256666,0.05298009630398331,0.03215443762515313,0.0016913726225554677,0.017922167261020746,0.04475688971070471,0.22159412097230072,0.00011407511407511163,False,False,True
0,1.4504040172786064,0.01591546362393091,1.4177236269054436,1.4797506712929602,0.03727923761157311,0.020430208934887648,0.003646517082049521,0.08066861930231642,0.03146116857358814,0.07893518141923364,5.4046034425603295e-08,0.5179017916108495,2.204453331187975,0.03171193428677461,2.1216359506611537,2.2415080264822187,-0.11880090497737554,11.94893945889636,-28.77,19.18,30.123454545454546,0.011205860494603486,30.11,30.15,2.26068621788284e-05,1.0890328538774072e-07,2.2069480319244968e-05,2.3172954335207218e-05,0.032416477064342086,0.00018838534632359437,0.0316778491075744,0.033053955505080466,1.939778796093599e-05,9.344431887495883e-08,1.8936688172571062e-05,1.9883522581199616e-05,0.028192279312255094,0.00013580972960275376,0.027522127950121197,0.02889823434762726,0.03241649075195947,0.00018838522969319505,0.03167786313111912,0.03305396894479547,0.16742081447963802,-7.736176543515828e-05,False,False,True
0,1.4384410296413601,0.024891425386626784,1.3971529696983769,1.4927037830072263,0.11633406389859616,0.10161003710009386,0.010098132990651999,0.3186535937229183,0.09255072024879331,0.20303223143019603,3.7494042093300095e-08,1.215071199557491,2.092379694512532,0.03836546980215721,2.032424600151072,2.141143210290482,0.12739400791407537,42.384529103066306,-236.39,195.62,30.11144144144144,0.007489003677738027,30.09,30.13,3.100387925865456e-05,4.099776726890982e-06,1.7655584255395975e-05,4.08285385906032e-05,0.00589261682101021,0.01291014518941579,-0.014411021759147866,0.03992847242713722,2.6602837274297498e-05,3.5178079561120642e-06,1.514935053805685e-05,3.5032873119256466e-05,0.038663925002471115,0.00511269762641529,0.02201770236009696,0.05091593670772422,0.007499547502672212,0.012046946703664395,5.628924587130778e-05,0.03992847920453688,0.12210288298473713,-4.0014040014039154e-05,False,False,True
0,1.4205402886519567,0.028424549446241114,1.3927228402198042,1.514220424502637,0.06831924542695976,0.06722254308852635,0.009056995396772214,0.28910004397390765,0.049603896010850905,0.16945306236098717,5.49786882686476e-08,1.2842731254710333,2.0913178293531174,0.018117123728426558,2.0629628686152497,2.1203675830499216,0.02441176470588259,17.84433725405213,-92.82,62.36,30.102727272727275,0.012333968230470357,30.07,30.13,3.3056161938579506e-05,2.534253272917718e-07,3.089727244694296e-05,3.475943150281083e-05,0.0007405488716157285,0.0011394351574645883,-0.004088218756027901,0.0041684196290084595,2.8363795692417455e-05,2.1745126430417952e-07,2.651136344159949e-05,2.9825283871799426e-05,0.04122325968954381,0.0003160384468792096,0.03853097913016968,0.04334735152144089,0.0011104494937007982,0.0007840606468309721,5.826430712995015e-05,0.0041686478549733804,0.16742081447963802,-1.0098505511349332e-05,False,False,True
0,1.4099371882218608,0.024234252046634278,1.3708580967555184,1.4517268060814434,0.07064829194685882,0.040194670200838896,0.017024176859761993,0.1701730950635298,0.05099787822789932,0.15452784945345027,6.164172217104635e-08,1.2797437249148929,2.059814214525829,0.0368028194181473,2.012519394155364,2.1201197967730354,0.2909440361786327,59.151404404766716,-775.12,191.63,30.106936936936936,0.011816228654831187,30.09,30.13,3.282023819534776e-05,4.929324737089593e-07,2.9793798430980708e-05,3.531116851079195e-05,0.004586822938909377,0.0030444890093526598,0.0007274852946351372,0.017240093724099688,2.816136163898895e-05,4.2296005205980185e-07,2.5564529032970932e-05,3.02987010761137e-05,0.04092904689641185,0.0006147199850626944,0.037154872732663616,0.04403540472019392,0.004587086702406539,0.0030443987280672695,0.0007287487174671731,0.017240145289879223,0.08140192198982475,-0.00010372060372060151,False,False,True
0,1.4145694883120083,0.02190384442686488,1.375248949972506,1.454844681650508,0.17676344385226586,0.07429556816423985,0.022056916043085475,0.35409684802537916,0.13895141958788199,0.2850870383170389,1.5611908210644287e-08,1.4109239463778245,1.966195173812174,0.050908322225786146,1.8930931991792945,2.0695219959818023,0.06229638009049721,96.97178484056627,-433.9,443.77,30.073636363636368,0.020124715405236603,30.03,30.11,3.274534176892498e-05,1.6865716241773057e-06,1.82073212633771e-05,4.524243465445219e-05,-0.0010103159220702827,0.0093411328844924,-0.021966240133267766,0.013111774531581506,2.8097096860122762e-05,1.4471605341745088e-06,1.5622767742371126e-05,3.882021075377068e-05,0.040835646009703304,0.002103268376336628,0.022705755558849988,0.05642036229774846,0.008705278294232002,0.0035231850939149946,5.727677650062896e-05,0.021966311463048765,0.09502262443438915,-0.0004199896309987963,False,False,True
0,1.3449676947149412,0.03620226543408732,1.2868957491742992,1.4183616714220366,0.12899254027148838,0.060038850788510345,0.03153194522906261,0.2378175940492891,0.09710526893745952,0.21383273357459234,3.2138671279824393e-08,1.1852887346883265,1.8229474371002017,0.13945782554708597,1.6649095708430313,2.0714844269358914,-0.43728506787330296,26.11490210658282,-141.22,115.56,30.030540540540542,0.014131707600468925,30.01,30.05,3.3978636257353375e-05,4.765130352439835e-07,3.144900945492408e-05,3.586290551877307e-05,0.000130668833604132,0.0020206123424919647,-0.00615237835228699,0.0034817031114717707,2.9155323552119383e-05,4.0887137476961603e-07,2.6984780645913764e-05,3.0772118280427976e-05,0.042373647277504194,0.0005942438397359674,0.03921903232892271,0.04472345791894695,0.0017053722632405423,0.001091048558244379,5.727677650062896e-05,0.006152532984467513,0.16289592760180996,-0.00022007722007721538,False,False,True
0,1.2920282504776095,0.02189069602406479,1.2356158059884614,1.3375333640727156,0.1971921806295275,0.09036166193067503,0.023394872016955642,0.33717467777527466,0.1545350088879014,0.311118403354604,2.3458781583940436e-08,1.5216614076846326,1.6085693589312924,0.12454339330569354,1.4697068856011954,1.8274065374511506,-0.11660825325042389,22.44614392920201,-84.75,140.52,30.01072072072072,0.013731960842020073,29.99,30.03,3.379809990246406e-05,4.4893222593379353e-07,3.144900945492408e-05,3.6966379534735316e-05,-0.0022611217764033115,0.0021489103948792794,-0.00959197600544397,0.0014175435152126812,2.9000414573434887e-05,3.852056981021521e-07,2.6984780645913764e-05,3.1718952689056526e-05,0.04214850628700341,0.0005598487134428938,0.03921903232892271,0.046099564316453005,0.0024967957784745487,0.0018700844590491413,5.826430712995015e-05,0.009592078522266725,0.1582815149802148,2.562302562302819e-05,False,False,True
0,1.2519713560247665,0.020844187327792547,1.1968325681886063,1.288170847629057,0.11723816769203313,0.046612166168326405,0.024540405426197284,0.19162822893646564,0.09441790553622978,0.1794451725998253,2.7198665986105652e-08,0.993316992796184,1.5793537084030411,0.05534737129524195,1.4945975449283206,1.6713899641464378,0.09511877828054294,42.24885379728692,-194.79,215.27,30.007090909090905,0.014034391215178467,29.97,30.03,3.375831593629304e-05,4.959883474198765e-07,2.9793798430980708e-05,3.8069853550697574e-05,-0.0036313187612013868,0.0014026912839987494,-0.009593312686660312,0.0021035916921411974,2.8966277994288e-05,4.255821404244271e-07,2.5564529032970932e-05,3.2665787097685084e-05,0.04209889300243652,0.0006185308653396513,0.037154872732663616,0.04747567071395907,0.0036397335690553246,0.00138140159817879,6.122689901791373e-05,0.009593408577942324,0.16742081447963802,-0.00012406735342516406,False,False,True
0,0.5105855345906966,0.021030272732619332,0.47659554034063156,0.5479010871781985,0.037862028750997694,0.03825271595076229,0.0018438352789533691,0.14313618715080095,0.03422315893830611,0.08031346005578088,4.05348055676491e-08,0.35771763792044653,-0.38000415939622045,0.04736707719803855,-0.44135656134449114,-0.29263870511472123,-0.0010910118711136233,4.745781753706782,-11.62,8.38,30.45288288288288,0.036165965602718626,30.39,30.51,3.475131772328169e-05,6.645174422283314e-08,3.420769449482971e-05,3.475943150281083e-05,-0.0021372583934232054,0.0002570305324813197,-0.002710775677305499,-0.0020220541379442976,2.9818321854088924e-05,5.70188305600435e-08,2.935186666748515e-05,2.9825283871799426e-05,0.04333723309204746,8.286979940414453e-05,0.04265929832268786,0.04334735152144089,0.002137754773262467,0.00025698138017947903,0.0020225727928591566,0.0027111503962544397,0.1537591859807801,0.0010415935415935256,True,False,False
0,0.5556717871285384,0.019076518498616243,0.5257911961515438,0.5889245613682816,0.055496927680686946,0.03589548615176504,0.0014185430948739032,0.12329659013588706,0.04231072765733303,0.11161245934347648,4.0451776234240455e-08,0.6877496204801243,-0.2740374599740631,0.022697227497548506,-0.29199180981769934,-0.2117593552669405,-0.028354072398190013,4.7951992304291196,-16.18,16.98,30.50018181818182,0.014775495345976374,30.47,30.53,3.472947293224172e-05,1.4309413270871961e-07,3.365595748684858e-05,3.531116851079195e-05,-0.0019932918211969337,0.0005417655454129115,-0.004086213734203388,-0.0006452793998300662,2.9799577960252947e-05,1.2278172984737644e-07,2.8878449463170872e-05,3.02987010761137e-05,0.04330999116675746,0.000178448018365289,0.04197124512393483,0.04403540472019392,0.001993881837181035,0.0005415268267761619,0.0006469547076523578,0.004086470414334213,0.15384615384615385,0.0001413790771588968,True,False,False
0,0.6464571934936051,0.05107037256857222,0.5740302873552044,0.7622329096467603,0.13028279174655624,0.11444423455224906,0.01608422185945631,0.38306287282515095,0.10840783077438107,0.27773403796948154,3.8606547847486183e-08,1.8046800256045064,-0.0991101197581058,0.05854089929645086,-0.20951054336028438,0.020906756376224522,0.3032918552036201,20.363181370828524,-170.49,113.35,30.474144144144145,0.012966282741189973,30.45,30.49,3.171239522117751e-05,1.0471182789361453e-05,-8.276055119716864e-06,4.910459371032006e-05,0.0008144201645451982,0.007025253483923049,-0.009593312686660312,0.04340215545131094,2.7210778451593204e-05,8.984784435871776e-06,-7.101258064714148e-06,4.2134131183970615e-05,0.03954749211384779,0.013058269988650655,-0.010320797981295449,0.06123673468901967,0.0035465221174448354,0.00611785034069652,6.418949090587729e-05,0.04340219639265294,0.2579185520361991,-0.00019094419094418686,True,False,False
0,0.6930434124504778,0.018771593832280716,0.6676996348477157,0.7418990347020776,0.0706108206126267,0.04732557671656356,0.012327958121333086,0.17982405735983858,0.0420522288342104,0.10707936099176202,3.751152299891203e-08,0.5178912970851641,0.08852224617900825,0.020036845279639056,0.025000605928822417,0.11522832627475377,-0.25723572639909564,11.476240397245716,-71.4,42.6,30.45882882882883,0.017411529029965466,30.43,30.49,3.411417974771426e-05,3.05246600984162e-07,3.2000746462905206e-05,3.586290551877307e-05,-0.005826953611422301,0.0007979563028874467,-0.00890459114729911,-0.00408755041541973,2.9271626463364085e-05,2.619164391258329e-07,2.745819785022804e-05,3.0772118280427976e-05,0.042542679136458525,0.00038066306442657003,0.03990708552767574,0.04472345791894695,0.005827129944357479,0.000797934828668628,0.004087790978868142,0.008904697986783651,0.1492368569813454,0.000356440856440849,True,False,False
0,0.6519945294011925,0.011453803165901564,0.6347977541012603,0.6739502044332312,0.00968719302977879,0.013143489332692961,0.00013126229944766986,0.04966476304648165,0.006689166011457865,0.029580914610861663,5.0680617934978356e-08,0.27021082086061077,0.03693129865361594,0.022393904427979675,-0.004115207129770537,0.07290273698589084,0.009389140271493197,5.26385811263199,-13.15,8.04,30.469454545454543,0.0156707150259492,30.45,30.49,3.4208942768603414e-05,3.7113847470982815e-08,3.365595748684858e-05,3.475943150281083e-05,-0.004926710202383168,0.00028545531204767714,-0.005462988472317618,-0.004774266932956418,2.9352937747132922e-05,3.184548735520072e-08,2.8878449463170872e-05,2.9825283871799426e-05,0.042660855004133004,4.6283466762330003e-05,0.04197124512393483,0.04334735152144089,0.004926917047369651,0.00028544422174444446,0.004774486622953039,0.005463174420345255,0.15384615384615385,0.000126862475486326,True,False,False
0,0.6216538492250101,0.009967097208371252,0.6037064288052693,0.6358542884378982,0.00330270777023405,0.00241556500751962,0.0003620678062643344,0.00960304680905633,0.002930520659820428,0.010505407717700302,5.26075868353959e-08,0.060632176626862266,-0.04041233581561128,0.026472187554050983,-0.08858866727487041,-0.004758957501349637,0.007518371961560162,5.273539364033592,-12.83,8.02,30.45576576576577,0.01304185915006303,30.43,30.49,3.421393586369828e-05,5.838231978748339e-08,3.420769449482971e-05,3.475943150281083e-05,-0.0047725926909827545,4.003685956001886e-05,-0.004774935273564589,-0.004086882074811559,2.9357222065724005e-05,5.0094871678642355e-08,2.935186666748515e-05,2.9825283871799426e-05,0.04266708172991358,7.280668379920357e-05,0.04265929832268786,0.04334735152144089,0.004772805632565114,4.0034778851697454e-05,0.004087130630632639,0.0047751480150013,0.1582815149802148,-9.828009828009618e-05,True,False,False
0,0.6154386643687352,0.013567643286328621,0.5952728120953444,0.6433418561172857,0.0251204127851934,0.029703923260574912,0.0005626834010626607,0.10613912164213948,0.01973515818535332,0.0726430306295042,4.42529115712853e-08,0.49402057795891974,-0.07916937091233427,0.0187539589213109,-0.09930906514379156,-0.05055673874917771,0.014394796380090651,15.842236040327771,-101.39,91.11,30.406363636363636,0.03450109086766918,30.35,30.45,3.4305059849179314e-05,8.191731075567617e-07,2.482816535915059e-05,4.193201260656545e-05,0.0024069325160610703,0.0055789248802094096,-0.010965409040517345,0.013112442872189678,2.94354108800112e-05,7.028903931023382e-07,2.1303774194142445e-05,3.5979707527885024e-05,0.042780719475408985,0.0010215640220497455,0.03096239394388635,0.05229204310523028,0.00576596461083514,0.001908490292095564,6.023936838859253e-05,0.013112513028239002,0.07239819004524888,-0.0010040799765570194,True,False,False
0,0.6031380620813487,0.009510817821669827,0.5858812974745622,0.6208116798729325,0.003382986089286232,0.0029543462993499854,0.0006749649112054495,0.01661297740688479,0.0016388327713711432,0.00880830151995641,5.534126102518799e-08,0.08505083362838836,-0.09134596050167938,0.024626588065054893,-0.13206672732724856,-0.052776794949844774,-0.09070661390616169,5.209145652192281,-16.52,13.66,30.334324324324324,0.013592887285879237,30.31,30.35,3.425756902662461e-05,1.5829867555148954e-07,3.420769449482971e-05,3.475943150281083e-05,0.007144383435284401,0.00040711313872802827,0.005545862707730861,0.007610690644598122,2.939466144301639e-05,1.3582796756820572e-07,2.935186666748515e-05,2.9825283871799426e-05,0.042721495222010165,0.00019740910704923564,0.04265929832268786,0.04334735152144089,0.007144526542556415,0.0004071043150047945,0.005546045877148818,0.00761082846038523,0.1582815149802148,-0.00021972621972624683,True,False,False
0,0.575852504177804,0.006593268094053091,0.5622058107196211,0.5888688267179725,0.0036220958084115973,0.0029827917887730324,0.0002598844031886987,0.011818379184179568,0.002914138171522246,0.009161325834958657,3.850666326424279e-08,0.0425653182821691,-0.16658482515612602,0.01918034237180448,-0.18812114701419116,-0.13252322215069934,0.09888574660633487,5.096792854286158,-12.14,7.43,30.303454545454546,0.013575231333380209,30.27,30.33,3.427884609993134e-05,1.8502202053790927e-07,3.420769449482971e-05,3.475943150281083e-05,0.0069228336346804555,4.009673782004493e-05,0.006233915906483891,0.007610022303989951,2.9412918207408035e-05,1.58757898115532e-07,2.935186666748515e-05,2.9825283871799426e-05,0.04274802916506099,0.0002307349175954007,0.04265929832268786,0.04334735152144089,0.006922980992218716,4.009590461630041e-05,0.0062340788595872275,0.007610155791155924,0.15384615384615385,-0.0001379527985032543,True,False,False
0,0.5600394020688103,0.00589024037105249,0.5508788688222123,0.571169680478135,0.0021499464267647874,0.0021449713155906923,1.6660339073717867e-05,0.008007627652402883,0.001922345757959532,0.008766278462360605,5.1429918604233016e-08,0.07816204738422253,-0.20860804025042942,0.017131311597918766,-0.23523111575071104,-0.17701491079708637,-0.06158936651583708,5.394527243830142,-12.03,8.27,30.272702702702702,0.015837007634360734,30.25,30.31,3.4246390981814806e-05,1.409799605274753e-07,3.420769449482971e-05,3.475943150281083e-05,0.006948479564371887,0.00013238355644356372,0.006921969105236921,0.007610022303989951,2.938507013656602e-05,1.2096766722513904e-07,2.935186666748515e-05,2.9825283871799426e-05,0.042707555447487285,0.00017581150330289993,0.04265929832268786,0.04334735152144089,0.006948626143422231,0.00013238093815567424,0.006922115860941215,0.007610155791155924,0.15837104072398192,-0.0002499122499122446,True,False,False
0,0.5461357913913027,0.0030592769287782593,0.538209562384144,0.5521924535147762,0.002047790559508389,0.0014785880801560002,0.0002464928502592468,0.006620537808377475,0.0011572094146789795,0.005787584506650575,6.261619626274362e-08,0.04027231034363264,-0.24661171644915159,0.006819997531075369,-0.25932027051853845,-0.2356841837770179,0.06463538722442058,5.135333241918872,-15.82,8.66,30.239454545454546,0.013736468814056919,30.21,30.27,3.422953928586968e-05,1.1080610417245638e-07,3.365595748684858e-05,3.475943150281083e-05,0.0074045668146805466,0.00034586273571284297,0.00554519436712269,0.008298075502742981,2.937061056132112e-05,9.507702999700812e-08,2.8878449463170872e-05,2.9825283871799426e-05,0.04268654024797785,0.00013818267274873203,0.04197124512393483,0.04334735152144089,0.0074047045162357,0.0003458555798023017,0.005545371696963781,0.008298197921697378,0.16732617297908423,-0.0002200031557829676,True,False,False
0,0.5396577044181815,0.002862806585874877,0.5266476730465535,0.5465112544866882,0.00828050909212652,0.008951004162360134,0.0002155583878249133,0.03190498232952489,0.0069279587870159885,0.027374959928139285,4.002958145510327e-08,0.25165372557558324,-0.27080420876571976,0.009671270882168502,-0.28589068491613356,-0.25946549558770554,-0.036527149321266696,21.312410014901925,-164.26,167.07,30.21900900900901,0.012573778990419362,30.19,30.25,3.439618383466036e-05,1.0352616223730039e-06,1.7655584255395975e-05,4.08285385906032e-05,0.005532080899230989,0.0031310744842028932,-0.005454968385019563,0.01930224829853426,2.9513599694298398e-05,8.883048552263458e-07,1.514935053805685e-05,3.5032873119256466e-05,0.04289435722090439,0.001291040949793178,0.02201770236009696,0.05091593670772422,0.005579949343325113,0.003045187640931075,6.221442964723492e-05,0.019302289714032222,0.15384615384615385,-0.00024798174798174266,True,False,False
0,0.5441982147913971,0.003819864866585765,0.5353045141034245,0.5523223700763807,0.0037146943571771496,0.003669886077633782,6.486965396755837e-06,0.013385032928106878,0.0022779259159286065,0.012370962566055972,5.916130701999478e-08,0.09869807585830695,-0.25346908000990476,0.008575011920901165,-0.278097570728711,-0.24519838736114374,-0.04732052006783496,5.754137469677478,-13.84,8.77,30.202909090909092,0.012291972060967946,30.19,30.23,3.4763172092695447e-05,5.235329509634695e-08,3.420769449482971e-05,3.531116851079195e-05,0.0014252135381173797,7.642527527045092e-05,0.0007308269976759938,0.0021062650545738827,2.9828493479964272e-05,4.4921675078212014e-08,2.935186666748515e-05,3.02987010761137e-05,0.04335201628889005,6.528808406039584e-05,0.04265929832268786,0.04403540472019392,0.0014259511665759236,7.639331689491446e-05,0.0007323066232396128,0.0021067629780674316,0.1537591859807801,8.791109708540713e-05,True,False,False
