,EDA_mean,EDA_std,EDA_min,EDA_max,EDA_phasic_mean,EDA_phasic_std,EDA_phasic_min,EDA_phasic_max,EDA_smna_mean,EDA_smna_std,EDA_smna_min,EDA_smna_max,EDA_tonic_mean,EDA_tonic_std,EDA_tonic_min,EDA_tonic_max,BVP_mean,BVP_std,BVP_min,BVP_max,TEMP_mean,TEMP_std,TEMP_min,TEMP_max,ACC_x_mean,ACC_x_std,ACC_x_min,ACC_x_max,ACC_y_mean,ACC_y_std,ACC_y_min,ACC_y_max,ACC_z_mean,ACC_z_std,ACC_z_min,ACC_z_max,Resp_mean,Resp_std,Resp_min,Resp_max,net_acc_mean,net_acc_std,net_acc_min,net_acc_max,BVP_peak_freq,TEMP_slope,0,1,2
0,2.088324039655354,0.10661260739361061,1.955288220815061,2.4446252585556016,3.835469095406649,1.3875108691997433,1.0146538305091721,6.537677410516172,3.050419320784332,4.0334353566337455,3.150658756112534e-08,19.145197869102617,0.22993115467141811,1.2493889196228483,-1.186118001152706,3.072140241786683,0.028665912945167488,71.73987682717667,-350.9,254.55,33.406396396396396,0.014320537876692728,33.37,33.43,-2.3782736073665995e-05,8.036441629287035e-06,-4.4690697646471064e-05,-9.931266143660237e-06,-0.015450852035030433,0.01650739295068791,-0.03923841420655968,0.04952646349805473,-2.040674498913519e-05,6.89565802862022e-06,-3.8346793549456406e-05,-8.521509677656977e-06,-0.02965867323357942,0.010021983824967799,-0.05573230909899543,-0.01238495757755454,0.018306293606573525,0.013266287974259609,4.5426408948774694e-05,0.04952646563241897,0.13566986998304126,-7.055107055107558e-05,False,True,False
0,1.910087826712209,0.017618004388292006,1.8798932239801192,1.9597275174776687,0.6087167061537747,0.6505829143151793,0.034926532553518824,2.506415533502422,0.3550522916359047,0.4682005476850345,1.8023920733689636e-07,2.0521076820685664,2.7373305578330482,0.6011912804306848,1.026577380788467,3.2909296810530995,-0.2468947963800907,32.849125229238915,-130.88,122.37,33.42636363636364,0.0238006735209341,33.39,33.47,-1.1745632073752013e-05,2.289104347847771e-06,-3.420769449482971e-05,-7.172581103754615e-06,-0.03172305064016387,0.003972060045029401,-0.03923707752534334,-0.013091724313336366,-1.0078323945690465e-05,1.964162934632839e-06,-2.935186666748515e-05,-6.154423656085595e-06,-0.014647594058069311,0.0028546672527538907,-0.04265929832268786,-0.00894469158378939,0.03172305471515167,0.003972058794643765,0.013091740139105329,0.0392370824352894,0.14027149321266968,0.0006313369249149529,False,True,False
0,1.872093414125159,0.03538468985646994,1.8344678883376964,2.0287915058194024,1.1809941604245868,0.7099170797832292,0.05353249906107056,2.2931290654043917,0.8504114390906353,1.482074051326926,2.7712779626654083e-08,10.14507492857609,2.0121362768880426,0.637316127355052,1.1564510793858178,2.999272663341979,0.016399095534201266,82.50397819683869,-328.66,469.91,33.46009009009009,0.011401395089714847,33.43,33.47,-2.044232371943623e-05,5.503894481728984e-06,-3.0345535438961837e-05,-3.310422047886746e-06,-0.022710304152493335,0.013429961776530004,-0.03374334538504983,0.036445432634449104,-1.754050862086455e-05,4.722609324169266e-06,-2.6037946237285214e-05,-2.8405032258856597e-06,-0.02549295410973091,0.006863727009376786,-0.03784292593141665,-0.00412831919251818,0.025599890095819713,0.006372619518610052,3.950122517284756e-05,0.03644544005955539,0.09496890898812888,-8.353808353807725e-05,False,True,False
0,1.8124043979775815,0.020371646413987986,1.7794905768486815,1.9003776470607925,0.39746570631571093,0.24770299816847,0.04518042780787986,0.8286049588604971,0.3079563796230313,0.5695652629229598,5.1662940592223094e-08,2.8863660349993445,2.554704048460698,0.22222470858163865,2.2386872794183996,2.9655405832691057,-0.5699095022624445,70.21145094091797,-238.21,254.48,33.46864864864865,0.011158892620724925,33.45,33.5,-1.9792004819105696e-05,5.575998696417465e-06,-3.531116851079195e-05,5.517370079811242e-07,-0.015819621453076596,0.010607352469873823,-0.03991310059314929,0.013054965579886944,-1.698250335521496e-05,4.784478249478451e-06,-3.02987010761137e-05,4.734172043142766e-07,-0.024681962653458525,0.006953645820046238,-0.04403540472019392,0.00068805319875303,0.01603007947120672,0.010286206549208343,2.9625918879635672e-05,0.0399131011294587,0.12669683257918554,0.00018620568620567046,False,True,False
0,1.7685727990626596,0.019260958049811025,1.7425235458712516,1.8473679222627852,0.2196543943157818,0.1668580410218455,0.016929484791293276,0.45371070125646834,0.16129195404101482,0.3283688436803881,5.984594153574108e-08,2.618986814799995,2.5559680539042304,0.12197979487204688,2.3517459015643385,2.7173534135924964,0.48606557377049264,47.15586288851476,-211.97,235.01,33.47627272727273,0.014002561424207643,33.45,33.5,-1.8576186163509277e-05,2.613716673863606e-06,-2.482816535915059e-05,-5.517370079811242e-07,-0.03267700873530048,0.0027569877412101785,-0.05300549324709382,-0.012386962599379053,-1.593927177828712e-05,2.2426961083104486e-06,-2.1303774194142445e-05,-4.734172043142766e-07,-0.02316575492588963,0.003259480680236533,-0.03096239394388635,-0.00068805319875303,0.0326770180583314,0.0027569880471883905,0.012386962791388923,0.05300550044642506,0.14471452798191067,-0.00028857381150960504,False,True,False
0,1.7238524395168835,0.012172737932530412,1.7033816660025218,1.745034859705871,0.022710032797617,0.013735703027784426,0.0033149231854315755,0.05455634302851342,0.015764636322407245,0.04422863425459025,1.8493490611115604e-07,0.2513538376774279,2.572356296263903,0.043202384256514834,2.4883523119328856,2.631533991504785,-0.04325226244343915,22.149376190938266,-50.81,57.12,33.43486486486486,0.0166714161946779,33.41,33.47,-1.9342002123682173e-05,2.0606662801889973e-07,-2.0966006303282724e-05,-1.82073212633771e-05,-0.03299005102786405,0.00039034060193499597,-0.034426720199545666,-0.028232904729552054,-1.6596379142193923e-05,1.7681519551524226e-07,-1.7989853763942512e-05,-1.5622767742371126e-05,-0.02412077899248461,0.0002569789601090257,-0.02614602155261514,-0.022705755558849988,0.03299006087586163,0.00039034041535832334,0.02823291555007027,0.034426730147989706,0.13122171945701358,-0.000325377325377359,False,True,False
0,1.6833374640181644,0.011830938266954432,1.6577446216931238,1.7045687830713232,0.024959952130268498,0.007645721150305155,0.01156243976663968,0.0439109543265675,0.018437885123745584,0.04147356589195159,1.5481578419240805e-07,0.2145175179727521,2.406701926212681,0.0480882508718116,2.334868981880671,2.4868405690764854,0.33998868778280544,22.09504056442829,-50.84,34.17,33.415454545454544,0.008948001020819241,33.41,33.43,-1.9861908150433616e-05,5.569878518293926e-08,-2.04142692953016e-05,-1.9310795279339348e-05,-0.0328171108292268,0.0003292430978696382,-0.03305061380203961,-0.03167450740453354,-1.704248381549007e-05,4.779226838796833e-08,-1.7516436559628233e-05,-1.656960215099968e-05,-0.024769136814386503,6.946013545839632e-05,-0.02545796835386211,-0.02408186195635605,0.03281712126613781,0.00032924298899912645,0.03167451821740226,0.03305062416470026,0.13122171945701358,-4.327930933436197e-05,False,True,False
0,1.6502932681734859,0.011980323680680407,1.6297168171876835,1.6700079181634937,0.02108311459334061,0.009276474351098674,0.008975227729743407,0.050499321334495736,0.01629775125680886,0.044830755613991025,1.4692464433974095e-07,0.28475245557503875,2.2774745270778554,0.04141929856787337,2.2030080949549635,2.334275540160601,-0.25528547201808893,24.283461763185517,-153.41,115.99,33.41468468468468,0.01263615446535947,33.39,33.45,-1.6389394579452854e-05,1.1538209785653728e-06,-2.3172954335207218e-05,-1.544863622347148e-05,-0.03489365456442274,0.0010933058227129081,-0.0364875380927639,-0.026171418495725646,-1.4062898174257645e-05,9.900345527851e-07,-1.9883522581199616e-05,-1.3255681720799745e-05,-0.020438678578551868,0.0014388924498561384,-0.02889823434762726,-0.01926548956508484,0.034893661323836075,0.0010933044331064767,0.026171433076671007,0.03648754505301099,0.12662521198417184,-0.00011530361530360813,False,True,False
0,1.6106632665196572,0.010837346479911313,1.5932049431172395,1.6297398304331534,0.011265583901184489,0.004705881488242648,0.0035073199471645873,0.02131964686803757,0.009056051428630111,0.024952838112205108,2.1137042265084727e-07,0.12327673609206569,2.1274064676379685,0.045088173074347815,2.0528083112752213,2.201844954872383,0.02597850678733024,17.724822728340445,-41.73,46.79,33.407090909090904,0.010435072701482164,33.39,33.43,-1.6527768900846326e-05,1.2766968766118257e-07,-1.7103847247414853e-05,-1.544863622347148e-05,-0.0351107338690346,8.660753199452373e-05,-0.03579948489401087,-0.03442204181528847,-1.4181630076296786e-05,1.0954680533284377e-07,-1.4675933333742575e-05,-1.3255681720799745e-05,-0.02061124067441062,0.00015921269682544464,-0.02132964916134393,-0.01926548956508484,0.03511074062366843,8.660749556858741e-05,0.03442204827190806,0.03579949198803137,0.13122171945701358,-7.213218222393456e-05,False,True,False
0,1.575741600661855,0.009493904996032426,1.5576368407949008,1.5962276581349322,0.021061761548947348,0.008699621163616429,0.007555957071269292,0.03582169557393308,0.01523466110245442,0.043776728089388095,1.3584672969857436e-07,0.2563556744427593,1.976921160056838,0.03650200183905797,1.9233181677465052,2.0512722731163495,-0.04558507631430186,26.69213106225284,-104.78,67.86,33.42945945945946,0.01512600637300343,33.41,33.45,-1.4559865296587858e-05,1.6686051078039615e-06,-1.9310795279339348e-05,-1.1586477167603609e-05,-0.03560648813290832,0.0008144741913803321,-0.038546350964157615,-0.03304393039595789,-1.2493073011587606e-05,1.4317443887470725e-06,-1.656960215099968e-05,-9.941761290599808e-06,-0.018157132376143307,0.00208086292068963,-0.02408186195635605,-0.01444911717381363,0.0356064933948366,0.0008144730713641005,0.033043935802266514,0.0385463545909129,0.12662521198417184,0.000396981396981459,False,True,False
0,1.5430790816018962,0.008729531985785861,1.5299914925843312,1.5593250455589127,0.017848311314597177,0.0056977183636454974,0.008045593292225742,0.0330813590801403,0.014694758631926543,0.037125411133178694,1.3746101662492904e-07,0.22958929763040725,1.8482409051279869,0.036487922887738417,1.7910212721005025,1.9221020406407203,-0.12186651583710376,20.284175393316154,-53.99,48.07,33.458,0.014639396388016816,33.43,33.49,-1.340708446656395e-05,4.141660284465225e-07,-1.434516220750923e-05,-1.2138214175584734e-05,-0.036196630673574634,0.00035744587159632405,-0.036483528049114866,-0.03510742165160881,-1.1503930956872143e-05,3.5537460868640524e-07,-1.230884731217119e-05,-1.0415178494914085e-05,-0.016719537061554116,0.0005164929242832619,-0.01788938316757878,-0.01513717037256666,0.03619663499113575,0.0003574456271988716,0.03510742635625453,0.03648353257630812,0.13122171945701358,0.0002329869485832566,False,True,False
0,1.5145825147218444,0.00812280522789153,1.4960147666779047,1.5303726273298128,0.011029351007904017,0.007404234474959437,0.0010676669327015528,0.025356949857753122,0.0071452277360607944,0.021943586344471307,1.2063978793719343e-07,0.10600712727699976,1.7403437656813932,0.025235993471382702,1.6922003565002015,1.78968746112451,0.09963821368004534,21.56040862070246,-51.87,40.93,33.469099099099104,0.013588066258137441,33.45,33.49,-1.3234207011777748e-05,6.3845764615078e-08,-1.3241688191546983e-05,-1.2689951183565858e-05,-0.036478963340053516,5.1599479861386383e-05,-0.0364828597085067,-0.03579480650975367,-1.1355593687212954e-05,5.47827732309951e-08,-1.1362012903542639e-05,-1.088859569922836e-05,-0.016503947235174374,7.96199673663007e-05,-0.01651327677007272,-0.01582522357131969,0.036478967508229064,5.15994735577049e-05,0.035794810762292725,0.03648286388084446,0.13566986998304126,0.00013162513162511764,False,True,False
0,1.4880595185955046,0.008093770958194755,1.4743437585682304,1.5012459556718856,0.011832960824049575,0.0061572469839015495,0.0014123249430750696,0.027897838581440935,0.010287658467749528,0.024353953291511216,1.0638041884197813e-07,0.0964571374860185,1.6323000617588388,0.03328611091638724,1.5709387395786,1.690916382157519,0.18920248868778286,20.42052014233982,-45.62,33.09,33.474545454545456,0.012608164213610789,33.45,33.49,-1.3217970989846438e-05,1.1197024047851406e-07,-1.3241688191546983e-05,-1.2689951183565858e-05,-0.03648049595676533,4.0035790808826496e-05,-0.0364828597085067,-0.03579480650975367,-1.1341662390235012e-05,9.60759156027993e-08,-1.1362012903542639e-05,-1.088859569922836e-05,-0.016483699822615012,0.0001396344291065272,-0.01651327677007272,-0.01582522357131969,0.036480500114743505,4.003578552174813e-05,0.035794810762292725,0.03648286388084446,0.15384615384615385,0.00010558348173027491,False,True,False
0,1.4774084016986437,0.006625094391646429,1.466280312630511,1.491877134902337,0.02789280937368425,0.01835971985084073,0.0035515736707927245,0.08348826720731599,0.020900009120740283,0.07210531245354206,2.3081245326128652e-07,0.5540592588293441,1.5735411110460562,0.015838805799954656,1.551304348415404,1.5956256636844448,-0.007341628959275803,22.19173848513109,-47.9,35.55,33.46495495495496,0.013874363138462525,33.45,33.49,-1.3206112388996166e-05,1.381055535468877e-07,-1.3241688191546983e-05,-1.2138214175584734e-05,-0.03648281661414622,4.62874728246769e-05,-0.03717024456665155,-0.03579480650975367,-1.1331487133581198e-05,1.1850128614660579e-07,-1.1362012903542639e-05,-1.0415178494914085e-05,-0.01646891134888616,0.00017222692425726313,-0.01651327677007272,-0.01513717037256666,0.03648282076457369,4.628745658583882e-05,0.035794810762292725,0.03717024832767554,0.12669683257918554,-0.00010284310284308984,False,True,False
0,1.4620155021256396,0.007314653011554686,1.4433320821899462,1.4756073595746977,0.018760220899305683,0.011027447746803818,0.0034496391948594008,0.04238413822171827,0.015866576870902233,0.045731185202391854,1.654208179324712e-07,0.23694796188955058,1.5206216138092863,0.0366167617321757,1.4658647147436092,1.5739744486822136,-0.06417750141322799,44.36454781898952,-312.74,314.89,33.46818181818182,0.014474388528341226,33.45,33.49,-1.3148067658518513e-05,6.993163895373235e-07,-1.9310795279339348e-05,-7.172581103754615e-06,-0.03644071590327605,0.0005786061033907759,-0.04061117890102488,-0.030296395985202975,-1.1281681929959899e-05,6.000474959570587e-07,-1.656960215099968e-05,-6.154423656085595e-06,-0.016396525661687027,0.0008720946244338876,-0.02408186195635605,-0.00894469158378939,0.036440720035667354,0.0005786059490168799,0.03029640548430857,0.04061118264922473,0.14471452798191067,-0.00010170637693573346,False,True,False
0,1.4378899954685718,0.007700570797962313,1.4247854667414752,1.4534142434188695,0.019656602887259976,0.004328891277469717,0.010806164644735603,0.030451466469668852,0.014959392854654007,0.04224633325791434,1.4391856661966074e-07,0.19748687518060273,1.4222302327575884,0.029263353294109676,1.373939847385571,1.4654948651943394,0.07466628959276005,18.251529247324378,-46.55,37.19,33.461531531531534,0.012518945511662128,33.43,33.49,-1.3232326138244137e-05,1.4707639276376228e-07,-1.434516220750923e-05,-1.2138214175584734e-05,-0.03646883823487924,0.00014198994415559873,-0.03785896610601276,-0.03441936845285578,-1.1353979806184368e-05,1.2619870277984154e-07,-1.230884731217119e-05,-1.0415178494914085e-05,-0.01650160165923415,0.00018341416478922468,-0.01788938316757878,-0.01513717037256666,0.03646884240361599,0.00014198989775731228,0.03441937325154873,0.037858970126693446,0.13122171945701358,-5.8968058968063195e-05,False,True,False
0,1.4166382282410404,0.006415463767802024,1.4031106853879192,1.4277636790718211,0.01894389622426327,0.012650652957630253,0.0009759876081620393,0.04672871988773244,0.013663855029490487,0.04199825505538615,1.71108794272401e-07,0.24707615266630417,1.3373010991159322,0.03265949819935314,1.2807341621040786,1.373310976363683,0.0584793668739404,19.704571282246572,-47.01,29.94,33.448727272727275,0.015151170415873026,33.41,33.49,-1.3234207011777748e-05,6.3845764615078e-08,-1.3241688191546983e-05,-1.2689951183565858e-05,-0.036481295723778104,3.26900121754921e-05,-0.0364828597085067,-0.03579480650975367,-1.1355593687212954e-05,5.4782773230995095e-08,-1.1362012903542639e-05,-1.088859569922836e-05,-0.016503947235174374,7.96199673663007e-05,-0.01651327677007272,-0.01582522357131969,0.03648129989168178,3.269000823845833e-05,0.035794810762292725,0.03648286388084446,0.13114754098360654,-0.00024101165385570874,False,True,False
0,1.3828766749175716,0.021549097095727835,1.3480349974322843,1.4059103254685386,0.05651071813383582,0.0464933451384627,0.0031392381452805345,0.1559467236065846,0.04301685816693717,0.11896283972200679,9.613192908375368e-08,0.7522451453657415,1.1636772144510952,0.10506153491359169,1.0417725383043617,1.2997792894589475,0.20510180995475108,49.398757552738125,-181.92,239.13,33.43900900900901,0.01566437503932749,33.41,33.47,-2.1604498338536894e-05,8.398168125734485e-06,-4.855285670233894e-05,-6.620844095773492e-06,-0.02516190566819253,0.011096686088100823,-0.042671328453634944,0.004095570502717786,-1.8537711003776788e-05,7.20603696676897e-06,-4.166071397965634e-05,-5.681006451771319e-06,-0.026942264111805583,0.010473081121966425,-0.06054868149026664,-0.00825663838503636,0.02518343715267662,0.011047720955054713,0.0006587906858955843,0.04267133046020676,0.0995475113122172,0.00018901368901371268,False,True,False
0,1.374438860112198,0.015538513496400282,1.343512847735351,1.4050550192392532,0.2487140913637147,0.1067838239651246,0.006296799600876041,0.3788066323245526,0.20474299545457103,0.44559073488075324,1.2173021168848663e-07,1.8638251701493003,0.9374213606974163,0.06570007861725012,0.8701494704996344,1.0693098327091237,-0.5293778280542983,65.31152309826044,-198.13,207.28,33.44854545454545,0.012027214067765666,33.43,33.47,-2.2739803335728824e-05,7.282484542623789e-06,-4.800111969435781e-05,1.1034740159622485e-06,0.0195998723882772,0.01980076223086782,-0.031015861192540052,0.059146509809041896,-1.9511857943423475e-05,6.248726155322242e-06,-4.1187296775342064e-05,9.468344086285532e-07,-0.028358065886162773,0.009081748572126269,-0.05986062829151361,0.00137610639750606,0.023944434814411705,0.014236430975276104,4.937653146605946e-05,0.05914651660492561,0.07692307692307693,8.51159750242165e-05,False,True,False
0,1.3360225415107432,0.014463031149146233,1.3101165652445586,1.369169898595652,0.06150594365927731,0.054917284646362606,0.003438204041718888,0.22063181580349658,0.03500850605179876,0.12044149025796272,1.2436201357601817e-07,0.8297091584191532,0.9697468315921949,0.016443739425100058,0.9336832896366912,0.9885573420449874,-0.5350084793668745,51.43209246040547,-170.93,242.75,33.475585585585584,0.014057329675600786,33.45,33.49,-2.786583958748106e-05,2.0827798810264846e-06,-3.64146425267542e-05,-2.2069480319244968e-05,-0.010359223006550587,0.010172734322661355,-0.025490048703054335,0.015102416660941751,-2.391024651699039e-05,1.7871265008768695e-06,-3.124553548474225e-05,-1.8936688172571062e-05,-0.03475057824064087,0.0025973667502973722,-0.045411511117699976,-0.027522127950121197,0.01202082705284048,0.008139839371421355,4.345134769013232e-05,0.025490072589827113,0.12662521198417184,0.00015584415584415776,False,True,False
0,1.3042430855934577,0.009174664412081398,1.2899044070800092,1.339114815011015,0.056805528313021346,0.03628061928174564,0.004617377593026565,0.14934690349999163,0.042284142851631366,0.12913631964976155,5.854400519922365e-08,1.1588317694147041,0.8461344626988878,0.03980099998475668,0.798787568651693,0.9321521382082358,0.9263065610859722,48.843306497171085,-237.4,262.15,33.48909090909091,0.009534625892455748,33.45,33.5,-2.813546672260306e-05,1.2929346938721713e-06,-3.420769449482971e-05,-1.8759058271358226e-05,-0.009885540116394633,0.0040964032517869205,-0.022739172589258554,0.006169755208099445,-2.4141599720908684e-05,1.1094008907860667e-06,-2.935186666748515e-05,-1.6096184946685404e-05,-0.035086821432791675,0.001612376619710005,-0.04265929832268786,-0.02339380875760302,0.009925563804369366,0.003998510605598578,4.6413939578095886e-05,0.022739201643593953,0.14027149321266968,-0.00011225570858597522,False,True,False
0,1.2800296939465399,0.0068474847407310035,1.2668655725385825,1.2915384830413374,0.005494272236835395,0.004926047152961683,0.0002934281909935875,0.018186681292412507,0.004022094202815353,0.018266364164358048,2.0123136867944424e-07,0.125510571407695,0.8000088636512163,0.025045131553045625,0.757034552241088,0.8471924122029386,-0.5034482758620692,27.382935579541996,-68.99,82.11,33.491621621621626,0.009773855714520212,33.47,33.5,-2.769782123229988e-05,1.2495575562448756e-06,-3.255248347088633e-05,-2.3172954335207218e-05,-0.010024705868604546,0.003962374898837945,-0.019296901573668892,0.0006526311465199507,-2.376607859127083e-05,1.072181195660282e-06,-2.7931615054542318e-05,-1.9883522581199616e-05,-0.034541048038643635,0.0015582824084001258,-0.04059513872642877,-0.02889823434762726,0.010030767574966742,0.0039471563356986905,5.036406209538064e-05,0.019296931825639248,0.14019219898247595,6.949806949806364e-05,False,True,False
0,1.2583235808041335,0.006512290392621418,1.2452226752341695,1.2712025889972358,0.006480718571175028,0.006674024245175883,0.0001218344680409867,0.022694099442010958,0.005901507779954824,0.023002307025656248,1.6022577734031707e-07,0.14105090064821396,0.7114178683661357,0.022819847808349527,0.6702866098009038,0.7560206092030133,0.3128563348416289,38.93940824068098,-300.47,99.93,33.49936936936937,0.009655830012746072,33.49,33.53,-2.9627153882190034e-05,1.8411135248373994e-06,-5.68289118220558e-05,-2.3172954335207218e-05,-0.0060695858111569825,0.0033407303804503232,-0.019334328647726485,0.0013440260483138372,-2.542153989999366e-05,1.5797650060543774e-06,-4.8761972044370495e-05,-1.9883522581199616e-05,-0.036947055759737085,0.0022959925321434614,-0.0708694794715621,-0.02889823434762726,0.006077373115705164,0.0033267569666020807,5.036406209538064e-05,0.0193344736549365,0.13574660633484165,-5.159705159705405e-05,False,True,False
0,1.240774840063851,0.004971743329112253,1.232090507711956,1.2499028595383304,0.010987266204683193,0.0074187299477628055,0.0007920898129463765,0.03434972481563947,0.008311981826607558,0.03066073044437972,1.505975608662169e-07,0.2528023880687014,0.6359581133561436,0.02146778767551693,0.6057320751717625,0.669463980201461,-0.2236687394007914,22.442389564663227,-85.1,92.93,33.48927272727273,0.01011031727640306,33.47,33.5,-3.0555245432945615e-05,3.0750800692750356e-07,-3.2000746462905206e-05,-3.0345535438961837e-05,-0.0034414750838907097,0.002296759302522238,-0.005541852664081834,0.004090223777852416,-2.621788761811055e-05,2.638568354813969e-07,-2.745819785022804e-05,-2.6037946237285214e-05,-0.03810444841420062,0.00038348318990390467,-0.03990708552767574,-0.03784292593141665,0.003595503498033942,0.00204734074576054,5.431418461266541e-05,0.005542002205361083,0.13566986998304126,4.327930933429534e-06,False,True,False
0,1.2288869109661023,0.004885158003723885,1.222052402452898,1.25356594271319,0.04463774869406439,0.03048968708539025,0.006762154884552795,0.11778201715154087,0.03387759987315003,0.10605246448293609,7.094941123497733e-08,0.8394700242017106,0.5544886471840683,0.02976415829817445,0.5134151091499654,0.6055134135487197,0.2551300904977379,47.21225347028015,-193.18,241.9,33.48495495495495,0.0118991117983185,33.47,33.5,-2.8050584105990576e-05,6.189460351135402e-06,-3.6966379534735316e-05,-1.655211023943373e-06,0.004790177029319273,0.0046922367342390955,-0.024805337207342158,0.024048444925947484,-2.406876630486033e-05,5.310858204655412e-06,-3.1718952689056526e-05,-1.4202516129428298e-06,-0.034980967094521975,0.007718673809351322,-0.046099564316453005,-0.00206415959625909,0.005238942286709181,0.0041848180824223076,1.77755513277814e-05,0.024805367133586276,0.12217194570135748,-3.825903825904436e-05,False,True,False
0,1.2208032204616668,0.00298245016063727,1.2118529880085718,1.2263219147595106,0.009395805842977454,0.007399763136195152,0.0007256670929268899,0.038156093608675896,0.00950321828866479,0.031408341964901686,1.6661574736565044e-07,0.2523061057404625,0.5573519956818747,0.015854654089920896,0.513203022564102,0.5778146355326788,0.06411199095022603,17.02884927869617,-41.84,25.73,33.46963636363637,0.013540782621214572,33.45,33.49,-2.9836239739286952e-05,1.4942942772368777e-07,-3.0345535438961837e-05,-2.9242061422999583e-05,0.008225944966437098,0.00015526040144715633,0.0075318264528339085,0.00890926953155631,-2.5600945740995102e-05,1.282177212909578e-07,-2.6037946237285214e-05,-2.5091111828656657e-05,-0.03720779990179846,0.0001863485578198437,-0.03784292593141665,-0.03646681953391059,0.008226038951726303,0.0001552584795286058,0.007531932590097574,0.008909352852366251,0.12669683257918554,-0.00017528120280412062,False,True,False
0,1.2316490127286392,0.013872728235788657,1.2024145488005837,1.2463325926235462,0.0714996523995677,0.05369048908501673,0.002961467320087424,0.17230041701927823,0.05288561559185083,0.16980918435868642,1.5820077825523526e-07,0.9384019648244382,0.5387987609958865,0.08838072740225193,0.42745961424203016,0.6575639652868956,-0.34881854154889763,64.95478584960868,-273.0,477.34,33.435945945945946,0.024210380132136586,33.39,33.47,-8.729289927403053e-06,1.2766756135527854e-05,-4.4138960638489935e-05,1.4896899215490354e-05,0.009949481835061528,0.01107239398758704,-0.059894713662530345,0.03850825554949185,-7.4901555873542375e-06,1.0954498085889696e-05,-3.7873376345142124e-05,1.2782264516485466e-05,-0.010886012303886921,0.015921004517881338,-0.055044255900242395,0.018577436366331808,0.013484712252739887,0.0062975655559733045,5.925183775927135e-06,0.05989472513871929,0.12662521198417184,-0.0006493506493506863,False,True,False
0,1.2381257446928124,0.0029668572917551854,1.2294193445233506,1.2445490219055002,0.004101766238769395,0.0025981306917188373,0.0003533747099248192,0.009384330645798033,0.0031040578937102012,0.01488811829686248,2.628118025566062e-07,0.10040584674504827,0.6323134177677077,0.010721141612905287,0.6103168418463036,0.650312876023821,0.3204751131221721,22.400037750606188,-55.35,41.01,33.40490909090909,0.013929406195675103,33.39,33.43,-1.5565973958200497e-06,4.953573457595178e-07,-3.310422047886746e-06,0.0,0.017486652128173137,0.0006316749587452747,0.011007514498832138,0.019263484543260326,-1.3356363207690113e-06,4.2504071029078835e-07,-2.8405032258856597e-06,0.0,-0.0019411817620928246,0.0006177439637823014,-0.00412831919251818,0.0,0.0174866522593479,0.0006316749942955127,0.011007514594864275,0.019263484666728076,0.12217194570135748,-0.00029862723440703045,False,True,False
0,1.2280363544024155,0.010174806613575272,1.1969705770858854,1.2360491344396367,0.028309352944165117,0.03192956182507193,0.0007034504063496482,0.10806121079408403,0.02201001188209893,0.08341474647277228,1.2073471011841974e-07,0.550224604968006,0.5674332456582191,0.05574421681496037,0.45662522129121413,0.6162127133144428,-0.3098699830412662,34.48726166457835,-324.86,129.47,33.38945945945947,0.011586656733096999,33.37,33.43,-6.039772654110114e-06,9.975056214410009e-06,-5.351848977416905e-05,8.827792127697988e-06,0.014729787028421489,0.007214830583878454,-0.022051119390505525,0.025458636694470283,-5.18241887573445e-06,8.559083689498125e-06,-4.592146881848483e-05,7.574675269028425e-06,-0.007532003172322479,0.012439566744271945,-0.0667411602790439,0.01100885118004848,0.01544610065122098,0.005514901413056532,5.431418461266541e-05,0.025458636704850605,0.12210288298473713,1.035451035452862e-05,False,True,False
0,1.1919278595019436,0.0041084040250713326,1.1830006979011964,1.2004067056720316,0.024962232976561412,0.029655000785304465,0.0011627864526145082,0.1521278175693644,0.03553385036821596,0.10552233969761261,1.5296342592563406e-07,0.6609549653787892,0.4252049507859447,0.03718388417140348,0.2705396403965328,0.4556727853813941,0.12407239819004526,31.17743653484678,-296.55,181.81,33.360181818181815,0.01910770141970366,33.34,33.39,-2.6478383287999107e-05,5.21456994701433e-06,-4.138027559858432e-05,1.2138214175584734e-05,-0.003153998939094415,0.00382466278052796,-0.011042936551065217,0.03028436585425589,-2.2719741488494195e-05,4.474354792784221e-06,-3.550629032357074e-05,1.0415178494914085e-05,-0.03302032681436487,0.006502919833659906,-0.05160398990647725,0.01513717037256666,0.004260122496646076,0.002533592174432028,1.77755513277814e-05,0.030284367817660886,0.13574660633484165,-0.00033685729098571326,False,True,False
0,1.1852280151503292,0.03614563100571932,1.1576400184481779,1.3380328427745232,0.3170110367461506,0.2581511735429571,0.004453576104266376,0.8315176475518955,0.22756462308745135,0.5932012257455892,4.799339237138156e-08,4.493890248574952,0.1061030331586062,0.1759246062534679,-0.1535564032310657,0.3325775279979813,-0.2429395138496328,30.052651279605207,-157.3,165.65,33.31198198198198,0.025219754876604956,33.27,33.37,-2.604136334506163e-05,6.357500210190552e-06,-3.751811654271645e-05,-1.3241688191546983e-05,-0.012023884572101032,0.012645778920147486,-0.03786698619331082,0.006149036649246134,-2.2344757108939715e-05,5.455044581745376e-06,-3.219236989337081e-05,-1.1362012903542639e-05,-0.032475333519901485,0.007928230828127306,-0.04678761751520604,-0.01651327677007272,0.012121101710854421,0.012552569921715053,5.135159272470183e-05,0.03786699523792573,0.12210288298473713,-0.0007242892242892339,False,True,False
0,1.157834539212147,0.0037294156758595643,1.150573057900777,1.16506314297276,0.013244449120627744,0.006203350521795757,0.0012232380733406833,0.026246404492432714,0.009673305715918845,0.03033393690815265,1.547962382719703e-07,0.1591086418222762,0.29941740739883355,0.014208992806200752,0.2817464530787105,0.3279258360638193,0.4195588235294119,17.735593760941047,-42.3,31.05,33.25763636363636,0.013809136234258779,33.23,33.29,-3.0288738982257896e-05,1.6775787680773902e-07,-3.0345535438961837e-05,-2.9793798430980708e-05,-0.0028075829060347653,0.00019001856262180225,-0.003477024727214572,-0.002100249989100341,-2.5989212113311685e-05,1.4394442259841295e-07,-2.6037946237285214e-05,-2.5564529032970932e-05,-0.03777209692566267,0.00020920536792690648,-0.03784292593141665,-0.037154872732663616,0.002807867859399453,0.00018999947370402674,0.0021006168694661115,0.0034772546325840016,0.11312217194570137,-0.00024182314090573172,False,True,False
0,1.142343402294259,0.0081520036468407,1.1103697489706086,1.153281864719132,0.08804128316234928,0.060080266941249655,0.0009527523162819178,0.19059737315081543,0.06809956309637555,0.18312760748252754,9.706942982745659e-08,1.5747636906508147,0.16226943149353806,0.0750804131475256,0.05330740842822465,0.28793440232681045,-0.11141402714932111,20.796965924407555,-86.45,112.7,33.252882882882886,0.011707603387031007,33.23,33.27,-2.887444479664112e-05,2.287983057856656e-06,-4.193201260656545e-05,-1.7103847247414853e-05,-0.0029413010019226733,0.002677929659093258,-0.016564070656293742,0.00272146912703624,-2.4775678872388435e-05,1.9632008132504765e-06,-3.5979707527885024e-05,-1.4675933333742575e-05,-0.03600837684831609,0.0028532689286357763,-0.05229204310523028,-0.02132964916134393,0.003232042698039634,0.002318595364939882,4.048875580216875e-05,0.016564162808295698,0.13122171945701358,-2.1060021060024352e-05,False,True,False
0,1.138454707186851,0.0026140682141501123,1.1275943586124713,1.1432617308289577,0.011681581139669082,0.0045377638467521825,0.004023141478135944,0.02264048135623225,0.009149581640135825,0.028811817908811668,1.0947688322548998e-07,0.19487949890529577,0.22271573707377615,0.006372267916945611,0.2138403243997596,0.23673552335314668,-0.01235726399095535,16.326559224946447,-39.14,31.03,33.25290909090909,0.015989988527543925,33.23,33.29,-2.9247678654981292e-05,6.670946901081161e-08,-2.9793798430980708e-05,-2.869032441501846e-05,0.000517971397142408,0.00027314250422859316,-3.6090392841250674e-05,0.000653299487128122,-2.5095931687071625e-05,5.723997097085906e-08,-2.5564529032970932e-05,-2.461769462434238e-05,-0.03647382460041373,8.31911995679928e-05,-0.037154872732663616,-0.03577876633515756,0.0005360736414386718,0.0002387290519969506,5.2339123354023015e-05,0.0006543923788412604,0.13114754098360654,-0.00011252620426934702,False,True,False
0,1.1330955264792315,0.0023259570515365108,1.1272820562282302,1.1381216195834454,0.006954039900279347,0.00292228064957139,0.002420795206566245,0.014825062744790075,0.005458097168540478,0.018062908876809575,1.2948265179502094e-07,0.09404201859624259,0.20592006095365742,0.004350360855340823,0.19746691968427682,0.21367330013580008,0.1383031674208143,16.92813457157313,-39.46,28.79,33.25936936936937,0.011384142022951493,33.23,33.27,-2.9250799339415577e-05,7.375332435515462e-08,-2.9793798430980708e-05,-2.869032441501846e-05,0.0006059201185859051,0.0002044006250506779,-0.0007234752509861093,0.002716122402170869,-2.5098609386191047e-05,6.328394166065388e-08,-2.5564529032970932e-05,-2.461769462434238e-05,-0.03647771630402659,9.197536146237598e-05,-0.037154872732663616,-0.03577876633515756,0.000616408635031775,0.00017444747753541054,5.2339123354023015e-05,0.002716406103502213,0.13122171945701358,3.264303264303774e-05,False,True,False
0,1.1266180268240928,0.0024404837894019555,1.120448482804665,1.1319943302746382,0.0050511539388441015,0.0035329953322947904,0.0004686120928978642,0.012615481843268442,0.0036725692597299095,0.013644709435555302,1.6840716880739404e-07,0.08726194411949702,0.18172514266977555,0.006971104869258402,0.16529983949906732,0.19713520912359211,-0.14267947993216512,16.856277569352596,-40.85,28.89,33.248,0.01353215674070779,33.21,33.27,-2.924954260276882e-05,6.3845764615078e-08,-2.9793798430980708e-05,-2.9242061422999583e-05,0.0006596192354481758,6.907225094222596e-05,0.0006519628059117792,0.0013406843452729805,-2.5097531044986343e-05,5.47827732309947e-08,-2.5564529032970932e-05,-2.5091111828656657e-05,-0.03647614906880893,7.96199673663003e-05,-0.037154872732663616,-0.03646681953391059,0.0006607503647213039,6.901367169270897e-05,0.0006531437176165624,0.0013412379265846553,0.13114754098360654,-0.00014723981696460086,False,True,False
0,1.1126709533970875,0.007550793212201296,1.101461916277504,1.131305483104172,0.010047064258138585,0.010086023828444361,0.00016643292546640595,0.040286169518885626,0.0074038660879189025,0.029318233616753352,1.264502257347644e-07,0.18473677392037957,0.12050644883569253,0.020816101754854783,0.0904257381582099,0.1644585371198823,-0.07955882352941204,20.703851037818986,-94.73,67.88,33.24369369369369,0.014265529205233494,33.21,33.27,-2.9240813149225872e-05,1.461947442745273e-07,-3.0345535438961837e-05,-2.813858740703734e-05,-0.003988613070089893,0.0022182144816302756,-0.00829272877787761,0.004093565480893272,-2.5090040749008885e-05,1.2544220546876028e-07,-2.6037946237285214e-05,-2.4144277420028106e-05,-0.036465262852465444,0.000182314689759602,-0.03784292593141665,-0.03509071313640453,0.004297398598867174,0.0015363800386635734,5.2339123354023015e-05,0.008292821703076048,0.14932126696832582,-0.0002060372060372304,False,True,False
0,1.0981190656245938,0.003271313518881853,1.091335619892051,1.1048733748318573,0.006959687659118275,0.0073188584300763046,0.00015735150572383495,0.03172480717707843,0.006546901589831454,0.023388669115116667,1.638215594013115e-07,0.17219120734782767,0.06485621229908668,0.015591603993126125,0.031991959891613256,0.08969599214021698,1.1058427601809957,18.745458100631726,-57.3,84.82,33.205999999999996,0.01930916975680805,33.18,33.25,-2.901799628061811e-05,1.2539830186417416e-06,-3.365595748684858e-05,-1.7655584255395975e-05,-0.005148849180659633,0.001603557657942787,-0.019992974859719976,-0.0007241435915942807,-2.4898853031881972e-05,1.0759784577714253e-06,-2.8878449463170872e-05,-1.514935053805685e-05,-0.036187395214507485,0.0015638012579862117,-0.04197124512393483,-0.02201770236009696,0.005149000192828461,0.001603529445795195,0.0007252069751572223,0.01999302087181161,0.13574660633484165,-0.00026616775240626516,False,True,False
0,1.0826299007705444,0.004694312544247963,1.0713319402278385,1.096560227354552,0.013021183440707153,0.013710016038711637,0.0008245299430537558,0.07323639387913844,0.014955002122334528,0.057786913505282644,1.1421530990429751e-07,0.5175569565601198,-0.00364318322427418,0.02590496643991381,-0.08130502460658279,0.03142296723897703,-1.022470322215941,29.009790967963152,-135.1,134.85,33.20153153153153,0.01982643773065753,33.16,33.23,-2.379833949583741e-05,2.05371615297485e-06,-3.2000746462905206e-05,-1.2689951183565858e-05,-0.012060418748545146,0.002377973377330384,-0.026872838506642106,0.006865160153542359,-2.0420133484732312e-05,1.7621884077598195e-06,-2.745819785022804e-05,-1.088859569922836e-05,-0.029678131751643706,0.002561122324485175,-0.03990708552767574,-0.01582522357131969,0.012108494483154889,0.0021195506613672804,0.0006645085438849287,0.026872871588359704,0.11758055398530243,0.00025500175500176123,False,True,False
0,1.0760406165996077,0.021983514706809867,1.0577726822212916,1.1537198718315678,0.1847241546519789,0.1365597610442405,0.004732658146771336,0.449222300531848,0.13629274523690102,0.3348730102017869,6.788306805560751e-08,1.6538614602749258,-0.20181732191274032,0.08337351105265549,-0.3229808210672792,-0.08663463205559077,0.2879411764705879,67.10922964643889,-395.52,500.89,33.174,0.0385327217076842,33.11,33.25,-1.721806429770959e-05,6.562663276425967e-06,-7.06223370215839e-05,1.655211023943373e-06,-0.030721728375534094,0.01993164340858687,-0.07504257748482775,0.08116621719096337,-1.4773937121513516e-05,5.631084477276613e-06,-6.05974021522274e-05,1.4202516129428298e-06,-0.02147208551357448,0.008184082985853302,-0.08807080944038784,0.00206415959625909,0.034798693326260205,0.011394911891416622,0.0007237948571893536,0.08116622141060488,0.16742081447963802,-0.0010760318283254044,False,True,False
0,1.060686913321102,0.005980862624247624,1.0410661916915755,1.0702887620107877,0.0741177128131151,0.05181002073524403,0.006151423111590626,0.17311143483530161,0.057381155824446785,0.14043203302295712,9.776855591780986e-08,0.7551540726402544,-0.15320093524144213,0.04662425530045829,-0.22071638187363943,-0.08261803047921817,-0.03689655172413802,61.15901128213206,-487.98,279.1,33.07324324324325,0.019916286718626754,33.05,33.11,-2.855566317917222e-05,8.791464416032978e-06,-5.8484122845999165e-05,-1.3793425199528107e-05,-0.0053119974987031,0.022168228781214022,-0.043371411783335055,0.01992279909586199,-2.450214873040805e-05,7.5435043244537385e-06,-5.0182223657313313e-05,-1.1835430107856916e-05,-0.03561083470698733,0.010963548077568644,-0.07293363906782117,-0.01720132996882575,0.018172905101901237,0.01374965764877859,8.295257286297987e-05,0.043371419680064804,0.11758055398530243,-0.00043559143559147536,False,True,False
0,1.0591583978768713,0.0032085016678878794,1.050561371315434,1.0655560112972187,0.012590434401649774,0.008468115709037327,0.0011907833864290235,0.033633507266944945,0.009592293918827427,0.02880183957431991,1.6506259159498882e-07,0.16058024502432755,-0.09790214684182984,0.01310720410902575,-0.11795350143057304,-0.07925719336395513,-0.1727997737556561,18.804328985408272,-63.08,70.16,33.06279279279279,0.01105121722388264,33.05,33.09,-3.479937626356964e-05,1.380418895144174e-06,-4.4690697646471064e-05,-2.7586850399056214e-05,0.00396007415049647,0.006588969881386338,-0.01449122263212842,0.011663487348392943,-2.985955842052806e-05,1.1844665930839917e-06,-3.8346793549456406e-05,-2.367086021571383e-05,-0.04339716532768546,0.001721475309221176,-0.05573230909899543,-0.0344026599376515,0.00660476619715669,0.0039299160497449715,6.122689901791373e-05,0.01449129501250828,0.15384615384615385,4.141804141804789e-05,False,True,False
0,1.0293712793890957,0.011834781023617541,1.0096735395978207,1.085344371476019,0.18210615730571078,0.11145844263332083,0.02225241634227305,0.44147722705953346,0.1373798325907913,0.3665627491961491,1.0196997202172042e-07,2.496725342500241,-0.3882642778189854,0.08435498177638964,-0.6163290122751087,-0.28680477474133237,-1.022543810062182,57.77332896777356,-285.03,329.42,32.6163963963964,0.027725695098844833,32.57,32.66,-3.246011121163157e-05,3.822781583026967e-06,-5.1863278750225675e-05,1.655211023943373e-06,0.009623001528246992,0.013498568825657226,-0.04475687494935551,0.048788953094297025,-2.785235516060735e-05,3.280132642113153e-06,-4.4501217205542e-05,1.4202516129428298e-06,-0.04047994429948822,0.004767266031257163,-0.06467700068278481,0.00206415959625909,0.015307546546319405,0.006350897367698515,6.122689901791373e-05,0.04878900095508752,0.13566986998304126,0.0007657072657072347,False,False,True
0,1.0485327756898628,0.011596943705682301,1.019763404002993,1.083431868176046,0.22546775468136387,0.05987043152759612,0.10100063281880416,0.38854649601201807,0.1511846165468747,0.35299673510812596,7.496922727057154e-08,2.216147438060989,-0.3529723430180059,0.056267949741842044,-0.4354815468034301,-0.2750521449686629,-0.5234954751131212,55.26414797586736,-298.87,205.24,32.64081818181818,0.013954830026464348,32.61,32.66,-3.225664258651636e-05,3.943113444562568e-06,-5.075980473426343e-05,-7.72431811173574e-06,0.005308127031811998,0.016937939442803522,-0.05645511600937337,0.04058578195791437,-2.7677769178020863e-05,3.3833832355191807e-06,-4.355438279691344e-05,-6.627840860399872e-06,-0.04022620522392997,0.004917327964830251,-0.06330089428527876,-0.00963274478254242,0.015958931068923567,0.00775421403044112,6.023936838859253e-05,0.0564551286669104,0.11764705882352942,-0.00023690913599166584,False,False,True
0,1.038518675603618,0.011487263483208667,1.0089114316316607,1.0698934817510009,0.17072793951206244,0.04809743220206486,0.07141708251129766,0.2860925354532502,0.1516397938689263,0.3781388837769483,9.581834614635909e-08,2.1007330929637504,-0.338982619174492,0.029899349556392788,-0.38413313751625133,-0.27541813079410526,1.0725607687959302,58.630863577618456,-243.92,251.97,32.61846846846847,0.023128030934469346,32.57,32.65,-3.246021558706576e-05,4.983397854710601e-06,-7.06223370215839e-05,-1.1034740159622484e-05,0.0020403884929024855,0.01709807849327883,-0.06818811078101612,0.0384955570779366,-2.7852444719809535e-05,4.275997887101256e-06,-6.05974021522274e-05,-9.468344086285531e-06,-0.0404800744626825,0.00621463266917546,-0.08807080944038784,-0.013761063975060599,0.014863061807462693,0.008680642389456684,3.2588510767599236e-05,0.06818815432707007,0.11758055398530243,-0.0005559845559845377,False,False,True
0,1.0469758203676554,0.01081472939941344,1.0202592131623427,1.073521052515792,0.2796894651254781,0.21397561415887448,0.06623593400550692,1.0579200798944448,0.27762402013642784,0.551805179337895,9.162158209896631e-08,2.922444794402825,-0.41452952727201586,0.18519546416858484,-1.126924995769321,-0.2516112619328088,-0.8583936651583703,69.64123601847616,-364.13,199.04,32.55450450450451,0.028500039513170483,32.5,32.61,-3.2088125627065115e-05,5.84964852085014e-06,-7.06223370215839e-05,1.544863622347148e-05,0.005162003107149822,0.01611669866636514,-0.07439529306317316,0.04466531228603604,-2.7533173425571933e-05,5.019283116598116e-06,-6.05974021522274e-05,1.3255681720799745e-05,-0.04001605322883572,0.007294905576624954,-0.08807080944038784,0.01926548956508484,0.015281456850235195,0.007255266313912312,5.826430712995015e-05,0.0743953512627977,0.10407239819004525,-0.0007055107055107249,False,False,True
0,1.073734229631379,0.029551163468564574,1.0187751075752944,1.247493936026648,1.0417424410341833,0.718639900805582,0.11400815326228467,2.4105393399223143,0.7324688233658312,1.6031233686032285,2.659718489894658e-08,13.94692733980304,-1.0682166551184527,0.7240937271447274,-2.0763841898027184,-0.1788524067993087,-0.1565573770491797,98.49425746672841,-403.01,324.5,32.51218181818182,0.018836905907998972,32.49,32.55,-3.146461287709549e-05,6.967965192775646e-06,-6.896712599764052e-05,2.5379902367131716e-05,0.008027830592305326,0.01751160378937429,-0.04749705761342055,0.057074330125484754,-2.6998169141510888e-05,5.978853246392874e-06,-5.917715053928457e-05,2.177719139845672e-05,-0.03923849084698699,0.008689521765509479,-0.08600664984412874,0.03165044714263938,0.017398738679498888,0.008253374299472866,5.431418461266541e-05,0.05707434216878062,0.13566986998304126,-8.313234001305577e-05,False,False,True
0,1.0592894141334086,0.015737068871399577,1.0343988473561323,1.1269211410865396,0.4307001849636845,0.17081162749640033,0.15212958921450828,0.8285177307362481,0.32473961803522605,0.6166339695044797,4.7466887309610684e-08,3.449740111236112,-0.5155675771775531,0.17086111328786674,-0.7496045793740255,-0.2263913504006968,0.3475000000000008,72.69673647129343,-201.29,227.06,32.468738738738736,0.02720685465490275,32.41,32.5,-3.160254712909077e-05,4.0860807877030835e-06,-5.68289118220558e-05,-1.1586477167603609e-05,-0.0069569520837894005,0.019850330195545843,-0.05163272855262861,0.0845857646258752,-2.711652344258946e-05,3.5060561737465515e-06,-4.8761972044370495e-05,-9.941761290599808e-06,-0.03941050414667525,0.005095617868066937,-0.0708694794715621,-0.01444911717381363,0.019265681364880216,0.008420483526355127,0.0007266217173148415,0.08458577865072318,0.14479638009049775,-0.0007330642330642628,False,False,True
0,1.028191926317406,0.010187582409700476,1.0143055643286998,1.0776534924846066,0.12724284741235695,0.085674602034656,0.00638344796670994,0.35309433659171907,0.09432653748112474,0.2105259998831867,4.143584053650784e-08,1.44810167213351,-0.33732287154127427,0.07753075117601516,-0.4432790348107538,-0.22689664793699837,-0.10759049773755626,46.35257757738657,-308.26,212.36,32.370909090909095,0.02348317588454807,32.33,32.41,-3.134165791038477e-05,4.668832782520353e-06,-7.06223370215839e-05,5.517370079811242e-06,-0.021115432142773734,0.005218636396881802,-0.06613865467813682,0.022712438964931702,-2.6892667796205557e-05,4.006085746177186e-06,-6.05974021522274e-05,4.7341720431427655e-06,-0.03908515772464045,0.00582234884371947,-0.08807080944038784,0.006880531987530299,0.021186968533580035,0.004919992168020216,0.002044225729488396,0.06613872014329777,0.18552036199095023,-0.0005803034059914606,False,False,True
0,1.0406819593148018,0.02518883536986861,0.9987331528950381,1.1420131763115218,0.37071836037727757,0.37542360002760045,0.02905684183127425,1.3199160050879934,0.3858054394238355,0.8627230502907189,5.987605433688259e-08,5.364274434445255,-0.5306530055958153,0.3714602769611087,-1.5563702914630557,-0.23375821846172928,0.7933973996608248,72.44572328062233,-236.57,295.48,32.309999999999995,0.028635642126551925,32.25,32.37,-2.773335683620374e-05,5.884757156508411e-06,-5.075980473426343e-05,-8.276055119716864e-06,-0.021320483292443456,0.011895212297052588,-0.04612830296260437,0.016497236595476607,-2.379656986883683e-05,5.04940803463007e-06,-4.355438279691344e-05,-7.101258064714148e-06,-0.034585363329410784,0.007338688409241021,-0.06330089428527876,-0.010320797981295449,0.02214182005847052,0.010283963415578532,4.740147020741708e-05,0.04612831355551372,0.07235726399095534,-0.0008130045630045473,False,False,True
0,1.0235995676847633,0.0324324404134115,0.9846775876657337,1.2190155194942978,1.0152904502093236,0.6913903536810383,0.06058353180446112,2.387538523067774,0.6746136044776644,1.2531176839958738,2.4298493883634364e-08,7.444915783868538,-1.243976905295075,0.6628532265769435,-2.1139155566420964,-0.3733102807819818,-1.1449208144796381,59.06576667943054,-231.58,214.23,32.237636363636355,0.018270509286589298,32.18,32.27,-3.090788277401952e-05,5.737085269035163e-06,-7.06223370215839e-05,-6.620844095773492e-06,-0.017167162549110788,0.011362217913335429,-0.04959864428373723,0.041254453279030434,-2.6520467618605533e-05,4.922698368408461e-06,-6.05974021522274e-05,-5.681006451771319e-06,-0.038544210922453394,0.007154531622452954,-0.08807080944038784,-0.00825663838503636,0.019021259694976003,0.007869490186720146,6.023936838859253e-05,0.04959868554487793,0.2081447963800905,-0.00031684061041859873,False,False,True
0,1.006522072120384,0.00675284038333946,0.9841154681003856,1.0180459566700857,0.048615819050363496,0.03770889845017067,0.0017628803563131156,0.11035834626833921,0.032675804064757785,0.0964172241823434,1.0864835520152383e-07,0.6358036772662183,-0.34613260711873206,0.04802218128483899,-0.40527896941388497,-0.2799231845229019,0.31941775014132234,29.02825426061154,-259.64,152.36,32.182792792792796,0.021412450548526533,32.16,32.23,-3.2971279321967025e-05,8.77530072207536e-07,-3.531116851079195e-05,-3.0345535438961837e-05,-0.01837297677911395,0.00225337287474494,-0.02549472708731153,-0.012422384651612132,-2.82909622763691e-05,7.529635088397223e-07,-3.02987010761137e-05,-2.6037946237285214e-05,-0.04111740535127412,0.00109433908628625,-0.04403540472019392,-0.03784292593141665,0.01837302913616529,0.0022533650790944313,0.012422451365428841,0.02549475844330873,0.11758055398530243,-0.00047025272025274546,False,False,True
0,1.0147443856446168,0.007276154572002218,1.0014483242492305,1.049481254435489,0.11595843678065097,0.12244974698400071,0.003946647277468586,0.39886499326672187,0.12690929040681379,0.3078309094949813,6.205583513718693e-08,1.6559897154101293,-0.3805656229487858,0.10885088291766948,-0.6729451148856969,-0.2813486774386128,-0.046753393665158224,44.78073310058399,-171.61,178.97,32.15781818181818,0.009125206362559752,32.15,32.18,-3.314166869207885e-05,4.587317169767922e-06,-7.06223370215839e-05,-7.172581103754615e-06,-0.016929361138049655,0.00572985396586337,-0.0667879441216159,0.018568747938425584,-2.843716464828969e-05,3.936141383303233e-06,-6.05974021522274e-05,-6.154423656085595e-06,-0.04132989236853608,0.005720693385971849,-0.08807080944038784,-0.00894469158378939,0.01697143315719475,0.0056040415846180126,0.0007125942502802964,0.06678796351009818,0.14027149321266968,1.3705114622542831e-05,False,False,True
0,1.0362982048570608,0.039570874779644334,1.000170011580095,1.2398089547819378,1.169307143453531,0.5447234204650199,0.23982937678791902,1.9758894202091626,0.8771046182186514,1.2641783330031495,2.5142163906366477e-08,6.263483439115973,-1.3466141165085252,0.4808974590504296,-2.0224301651105927,-0.5265789556575676,0.05404748445449362,62.88506383129159,-321.91,182.58,32.169909909909904,0.010044944046680025,32.16,32.18,-3.0666602737391526e-05,7.140324972578982e-06,-7.06223370215839e-05,5.517370079811242e-07,-0.017964626423233973,0.013928361359175145,-0.07642536728841551,0.024747859915039423,-2.631343760476753e-05,6.126746325723002e-06,-6.05974021522274e-05,4.734172043142766e-07,-0.038243318470804,0.008904466016329268,-0.08807080944038784,0.00068805319875303,0.019308797225017552,0.011993433591294794,6.023936838859253e-05,0.0764253877901087,0.12662521198417184,4.563004563005276e-05,False,False,True
0,1.0048886394724783,0.005456475654208694,0.9929105966354027,1.0147868298249887,0.03474771505981588,0.04979691572829873,0.005370133276151424,0.2279636674819581,0.01214511881948971,0.04469932733821617,1.579691110142889e-07,0.3835684293739652,-0.3391363286421607,0.04224582054349875,-0.5110013401836238,-0.3009161502105463,-0.3801300904977374,23.951955354239853,-120.3,157.31,32.14954545454545,0.016721483387313236,32.11,32.18,-2.935815088395489e-05,9.326070738213991e-07,-4.303548662252769e-05,-1.7655584255395975e-05,-0.026094410067622854,0.0009359326058663174,-0.04271142889012522,-0.015853293876862885,-2.5190722235899255e-05,8.0022225666499e-07,-3.6926541936513574e-05,-1.514935053805685e-05,-0.03661159090830885,0.0011630238157678005,-0.05366814950273634,-0.02201770236009696,0.026094438776078633,0.0009359324564634408,0.015853323282090135,0.042711466533693634,0.18552036199095023,-0.0003826161440840044,False,False,True
0,0.993619177672749,0.0026738384944028936,0.9845189306680295,1.0004158936661727,0.01724500279900406,0.011603526603473018,0.0014162202799097255,0.04663393888993612,0.013349963551650043,0.044366924879573756,1.431189839973257e-07,0.29009506289849296,-0.36691646961020563,0.01276382130098613,-0.38492866205751464,-0.3453487062928029,0.44506787330316744,18.839271235528894,-89.74,72.33,32.138828828828835,0.012985218081181821,32.11,32.16,-2.95329092122747e-05,2.86653929095512e-07,-3.0345535438961837e-05,-2.869032441501846e-05,-0.02578873385524769,0.0003904842823350211,-0.02755821834296245,-0.023428562469227927,-2.5340673386587032e-05,2.459630217930611e-07,-2.6037946237285214e-05,-2.461769462434238e-05,-0.036829526310628816,0.00035747675069140614,-0.03784292593141665,-0.03577876633515756,0.025788763227135303,0.00039048371382374106,0.023428592969705182,0.027558246305851204,0.08144796380090498,-3.685503685514674e-06,False,False,True
0,1.0114084918508237,0.04443190520028577,0.9835778532732005,1.290566316895182,1.4918730042951303,1.2818093450483954,0.0026606150281034114,3.5634024737081638,1.2653185406474012,2.5086131336162034,2.062269288671814e-08,19.154103060535647,-1.7695686457880009,1.1824128502177451,-3.4313507523897977,-0.35398085965259807,-0.2698304126625216,51.29102572128344,-260.51,355.3,32.14745454545455,0.010354838751583063,32.11,32.16,-3.150705418540173e-05,3.0211446549101087e-06,-5.075980473426343e-05,-1.1034740159622484e-05,-0.019955126476394094,0.008870851564627488,-0.04134000087687636,0.03367717966484088,-2.7034585849535065e-05,2.592289144406089e-06,-4.355438279691344e-05,-9.468344086285531e-06,-0.03929141801612184,0.003767570805722779,-0.06330089428527876,-0.013761063975060599,0.020922764090864784,0.006252516949126966,0.0006500378253526249,0.04134004706315802,0.18541548897682306,9.485381962445038e-05,False,False,True
0,1.0165548461006388,0.013215821731177926,1.0044721266489691,1.0899736070489625,0.3572100365671127,0.37185864083320797,0.031048690639188428,1.707917063156419,0.16741928694814764,0.37710127630999934,5.3281331346966e-08,3.3473304306001843,-0.6144056662913548,0.3626601797453918,-1.9564307068906426,-0.2911249223214918,-0.18101244343891426,43.65827905564512,-230.64,303.89,32.15414414414414,0.010826605987814956,32.13,32.18,-3.265296950967022e-05,4.0630725978072e-06,-7.06223370215839e-05,-9.931266143660237e-06,-0.01388779195453802,0.01204194583567435,-0.023440592600175014,0.04399998266796084,-2.8017836966187796e-05,3.4863140270729064e-06,-6.05974021522274e-05,-8.521509677656977e-06,-0.040720451582762746,0.005066925106069139,-0.08807080944038784,-0.01238495757755454,0.01799442920921329,0.003732739898332183,0.0006488018270893337,0.0439999995391239,0.0995475113122172,1.9129519129525672e-05,False,False,True
0,1.0075886865486228,0.023495962491518814,0.9842139915140236,1.1484392617306196,1.085653554448317,1.0136919803278965,0.023997075360921646,2.8643666302352413,1.1070413974414735,1.8978721412267852,3.2216650680538805e-08,9.707484027161321,-1.3785729992393405,0.9872201247593482,-2.958978268240598,-0.3379169385176404,-0.1354663651780662,45.39398866879385,-263.74,234.32,32.153999999999996,0.010064015285645765,32.13,32.18,-3.4294974925470785e-05,4.655600921140194e-06,-7.06223370215839e-05,1.3241688191546983e-05,-0.012300551700331388,0.0069414795407385125,-0.03306531729541937,0.06193614967811161,-2.942675752466481e-05,3.994732165156057e-06,-6.05974021522274e-05,1.1362012903542639e-05,-0.042768142896501896,0.00580584782164486,-0.08807080944038784,0.01651327677007272,0.013423342600433808,0.004389873942087323,5.727677650062896e-05,0.06193615091121504,0.2532504239683437,3.173816017853109e-05,False,False,True
0,1.0266716025948326,0.033644905559204116,1.0011255404369828,1.2345333684751467,1.1689122864096395,0.8643100578480757,0.08556631036358224,3.2227244808503914,0.702686950904903,1.078991161030527,2.3393880610456108e-08,6.356406585314531,-1.3854926784766353,0.779189865313931,-2.906582590867364,-0.38545056693044455,0.8108144796380093,49.04767753124993,-163.73,266.09,32.08567567567568,0.03556355697573884,32.03,32.16,-3.416525318652346e-05,1.4267675662387999e-06,-4.138027559858432e-05,-1.8759058271358226e-05,-0.005698366078538823,0.013230927773595726,-0.02618612198910542,0.04057241514575094,-2.9315449959460973e-05,1.2242360085408037e-06,-3.550629032357074e-05,-1.6096184946685404e-05,-0.042606371153553015,0.0017792752228454232,-0.05160398990647725,-0.02339380875760302,0.013724181803036927,0.004359031483408656,6.418949090587729e-05,0.040572422675366544,0.1085972850678733,-0.0009527904527904723,False,False,True
0,1.123068020409057,0.14728053466461083,0.9928134531230058,1.7853626650494976,6.8607163735696925,2.5815362976019918,1.0560310957987575,10.849232138249391,5.55503412444522,7.146806938763298,1.0300681196895312e-08,38.368983142252574,-6.6872597249767045,2.3034970322142496,-9.365002739459444,-1.3808158959421397,-0.411334841628959,45.12160467828583,-129.47,265.05,32.057272727272725,0.0145204121374203,32.03,32.07,-2.964150903058773e-05,4.297413273435725e-06,-4.027680158262207e-05,-9.931266143660237e-06,0.02279282747427952,0.007728105606077543,-0.0062412676531737755,0.04745829385814662,-2.5433857315943014e-05,3.6873897314544596e-06,-3.455945591494219e-05,-8.521509677656977e-06,-0.03696495759635623,0.005359163707308062,-0.050227883508971186,-0.01238495757755454,0.022816704345455633,0.007657344796024733,6.715208279384086e-05,0.0474582976224137,0.1085972850678733,0.00010531298604693823,False,False,True
0,1.1491809311995556,0.13382227012781045,1.0612864558543065,1.718226865804281,2.5170056848247997,1.0670375872010818,1.0948809432310294,4.977586672521392,1.7225089709777988,2.8807101611734276,2.3688286887590948e-08,17.910929736251177,-2.23943334752844,0.8141231164427727,-4.2892546369475415,-1.0855214575588064,0.3263143018654595,78.58376880183499,-361.31,325.92,32.063873873873874,0.014964878347237686,32.03,32.09,-2.521076127079361e-05,3.537956266480437e-06,-4.08285385906032e-05,-8.276055119716864e-06,0.030626745599885163,0.003895835361525619,0.00889924442243374,0.05155653772329709,-2.1632060106183904e-05,3.035738658880475e-06,-3.5032873119256466e-05,-7.101258064714148e-06,-0.03143951680682256,0.004412069683539287,-0.05091593670772422,-0.010320797981295449,0.0306267651790908,0.003895825845944072,0.008899381734028848,0.05155656356247643,0.09044657998869417,3.194103194104267e-05,False,False,True
0,1.0809522641094476,0.008880732409074093,1.0606679420070586,1.1051731234410587,0.33155716561489845,0.5249784459460676,0.021700167247455722,2.0816370736790795,0.1116263921312278,0.26468979160459344,8.599822720611883e-08,1.4439460908853405,-0.32903118422876393,0.5062218134049126,-2.036898642437465,-0.015809005720008873,-0.3247624434389142,27.173666941408054,-176.5,140.46,32.106818181818184,0.036420878632091765,32.03,32.16,-2.4687734559607882e-05,6.626600310669948e-07,-2.869032441501846e-05,-2.2621217327226096e-05,0.03147654889091366,0.0007953503740714313,0.028178100799682006,0.03437057958845927,-2.1183277733768337e-05,5.685945564291037e-07,-2.461769462434238e-05,-1.941010537688534e-05,-0.030787267281307804,0.0008263816772592252,-0.03577876633515756,-0.02821018114887423,0.031476565739147,0.0007953493219504336,0.028178122407776094,0.034370597303468364,0.06334841628959277,0.0010636341095056443,False,False,True
0,1.078264428264552,0.019066253144690935,1.0644822145366963,1.2019761065834906,0.1893329555670119,0.2651394221595362,0.0027847098768810103,1.024529955967775,0.19695212172569176,0.5180521966563466,3.6472446396373925e-08,4.204207155126017,-0.19763114726239694,0.23395435731834932,-0.7076969011267855,-0.01594661493543681,-0.6905313736574331,20.492328496443985,-123.42,145.72,32.23243243243243,0.041652593856068586,32.16,32.31,-2.6037622755177008e-05,5.753677769410578e-07,-3.144900945492408e-05,-2.372469134318834e-05,0.02989760756349872,0.0006546923345634683,0.024734493102876,0.03368586809274711,-2.2341547500774872e-05,4.936935541240236e-07,-2.6984780645913764e-05,-2.035693978551389e-05,-0.03247066875245231,0.0007175223587634682,-0.03921903232892271,-0.029586287546380288,0.02989762728177129,0.000654691277862298,0.02473452311483424,0.033685882598322024,0.27586206896551724,0.0012234117234117357,False,False,True
0,1.092868986264642,0.007226050186346501,1.0814718000817953,1.1197951572381024,0.23101235275209528,0.27388053114595035,0.010207548169755649,0.8583101774165408,0.13196476993967493,0.30966411606728234,1.5492465843536252e-07,1.9352827084330961,-0.18065018939409816,0.24786144347443395,-0.7076512931396712,0.021982947052149537,0.991481900452489,22.30944020859163,-151.04,96.73,32.355225225225226,0.029258933269774957,32.31,32.41,-2.6887192948890106e-05,4.3205110121551094e-07,-2.813858740703734e-05,-2.427642835116947e-05,0.02886722152108664,0.0005180498354798341,0.026801994402175944,0.03162104015587984,-2.307052007313883e-05,3.7072087153767514e-07,-2.4144277420028106e-05,-2.083035698982817e-05,-0.033530139987649074,0.0005387968142718303,-0.03509071313640453,-0.03027434074513332,0.02886724328059012,0.0005180490822755255,0.026802017119702842,0.031621056335747404,0.0995475113122172,0.0007974727974727936,False,False,True
0,1.081057311486949,0.005874036038553933,1.065693829111023,1.1069107697187575,0.05937525953227754,0.03250673462615208,0.008921377798444678,0.14946764915108518,0.05162042071938378,0.12772516577642795,1.0167041031294843e-07,0.6257796843979139,-0.05637316742504578,0.03299497580481983,-0.1731894399430064,-0.019321955136300417,-0.11036178631995472,18.564974672687907,-124.57,78.59,32.45254545454545,0.03257838433591067,32.39,32.5,-2.6737400096044553e-05,1.6892905615776191e-06,-4.138027559858432e-05,-1.0483003151641362e-05,0.028753765225530102,0.00373150466652459,-0.004859814530802345,0.04815102544115685,-2.294199051540644e-05,1.4494935147869053e-06,-3.550629032357074e-05,-8.994926881971256e-06,-0.03334333821423196,0.002106659074347516,-0.05160398990647725,-0.01307301077630757,0.028775910105644616,0.003556675990616243,0.0013335018169239852,0.04815102742244446,0.2668174109666478,0.0009510628226224727,False,False,True
0,1.0739991059497567,0.010012029162221783,1.0589223849886902,1.120929678388896,0.20977317984491906,0.11075655026134333,0.010248514960554254,0.3817866083011007,0.1475716360175847,0.33164963058424546,5.245141654341978e-08,1.6343332717212284,-0.23554189764144054,0.08850042176215633,-0.34092262579991084,-0.08602075056007774,-0.047997737556560935,41.89149287205256,-190.26,159.0,32.57288288288289,0.04815481449332156,32.49,32.63,-2.529377147674552e-05,1.719514020197797e-06,-2.9793798430980708e-05,-1.1034740159622484e-05,0.03068969064490565,0.0018331728433881147,0.02542187796102086,0.04333398470927746,-2.17032869027606e-05,1.4754267131725437e-06,-2.5564529032970932e-05,-9.468344086285531e-06,-0.03154303612292454,0.0021443497622661784,-0.037154872732663616,-0.013761063975060599,0.030689709006517487,0.0018331698153222305,0.02542190827378243,0.04333398714864492,0.11312217194570137,0.00144085644085646,False,False,True
0,1.0602407476223918,0.003788212457612356,1.0523263497727309,1.0728634991176185,0.05249168035559839,0.05971162251588672,0.0054973409356399005,0.29878805102202993,0.06950853814868913,0.1667554933437976,2.1178590314807622e-07,0.9551186711613937,-0.13336681976141138,0.06613256389328839,-0.4075149478715774,-0.08710853102939198,-0.14586538461538467,16.054927426389845,-66.62,71.88,32.65363636363636,0.016630207550396608,32.63,32.71,-2.5636422627629727e-05,5.303635419789243e-07,-2.813858740703734e-05,-2.2069480319244968e-05,0.03031956373494911,0.0005709513015753254,0.02679998938035143,0.03230842501402469,-2.199729826607343e-05,4.550777302987625e-07,-2.4144277420028106e-05,-1.8936688172571062e-05,-0.03197034517961618,0.0006613990475206086,-0.03509071313640453,-0.027522127950121197,0.030319582577558492,0.0005709504207990409,0.02680001502822681,0.032308441577634885,0.1900452488687783,0.0003155782972296441,False,False,True
0,1.019802808955778,0.002366657141231465,1.0146934750988108,1.0260202069017723,0.007618797647413856,0.006974350336342824,0.00024165372995604316,0.0285894433099161,0.003931487871276833,0.014969804810806897,1.3778695462374202e-07,0.0870811179917369,-0.2515657630960045,0.0048248210577196745,-0.2573621131206566,-0.24315247261143103,0.06963821368004522,5.65471051427554,-25.63,16.44,33.024144144144145,0.01801355391054482,33.0,33.05,-2.617068380277887e-05,3.079407997322893e-07,-2.6483376383093966e-05,-2.5379902367131716e-05,0.0006540166041404845,4.002206649330572e-05,-3.1412008584051516e-05,0.0006573095307771498,-2.2455720355318924e-05,2.642281927706944e-07,-2.2724025807085277e-05,-2.177719139845672e-05,-0.03263660483813722,0.0003840229116724698,-0.03302655354014544,-0.03165044714263938,0.0006551831066173976,3.5546125008888035e-05,4.6413939578095886e-05,0.0006581597106780747,0.13566986998304126,-0.00018409968409967254,True,False,False
0,1.015942901133061,0.0017935167463710095,1.0110952064869803,1.019447560673434,0.007372215487342367,0.00658748673909545,0.00010141215964764925,0.02755155207760338,0.007400025297145151,0.024338985604623786,1.7153343118136988e-07,0.15048759397987457,-0.26711061698614696,0.007959079463065235,-0.28528249531047456,-0.2520399648493635,0.006600678733031675,5.376130231919593,-14.32,13.13,33.010909090909095,0.016620174241761793,32.99,33.05,-2.5751263814811317e-05,4.203459297396525e-07,-2.7586850399056214e-05,-2.3172954335207218e-05,0.0006802099078141735,0.0003622323042718355,-0.0007187968667289102,0.0027187957646035545,-2.2095837593668253e-05,3.606772647540804e-07,-2.367086021571383e-05,-1.9883522581199616e-05,-0.0321135598725693,0.0005241996773036459,-0.0344026599376515,-0.02889823434762726,0.0006965470105369821,0.00033143251933655634,4.147628643148994e-05,0.002719038755436288,0.14479638009049775,0.0001500349390257697,True,False,False
0,1.0223457314842934,0.008444304007859409,1.002042489170694,1.0565274141918293,0.04523950484753154,0.03401948000446967,0.01396060882533809,0.16264552496670187,0.0343038509727338,0.11822548797959002,6.086771053848139e-08,1.0395873649772736,-0.2793352528600412,0.018871125226798537,-0.3235875593798401,-0.25254031656059617,-0.9842227247032218,65.02749469901524,-533.55,308.24,33.00828828828829,0.016173708962042614,32.99,33.05,-2.5203471210907244e-05,4.278508094128886e-06,-4.744938268637668e-05,-7.172581103754615e-06,0.0008938714661591086,0.002815438991551175,-0.015867329029634482,0.019905422240049535,-2.1625804880014984e-05,3.6711681675480374e-06,-4.071387957102778e-05,-6.154423656085595e-06,-0.031430425611286714,0.005335587675780529,-0.059172575092760575,-0.00894469158378939,0.0019689666214439063,0.0022014830404268105,1.6788020698460215e-05,0.019905491063860973,0.09044657998869417,-0.00013109863109862498,True,False,False
0,1.0165114143767213,0.004294709551548202,0.9956864775979262,1.024087932340916,0.05207435865801182,0.03668957654191899,0.008332952970617412,0.11335570814506012,0.03951081932745362,0.10792918857001405,1.0352919443956665e-07,0.573870601551105,-0.30894279954518666,0.03322326259286726,-0.3545602445755738,-0.2702661591339022,1.3078450226244351,93.44717690234636,-492.94,668.51,32.978828828828824,0.012985218081183929,32.95,33.0,-2.226046620662305e-05,6.7117614657497336e-06,-5.68289118220558e-05,-1.655211023943373e-06,0.001799800702875932,0.005483465724775492,-0.014508599487940876,0.05154116588930915,-1.910056335867985e-05,5.75901797990001e-06,-4.8761972044370495e-05,-1.4202516129428298e-06,-0.02776030021122802,0.008370018467085353,-0.0708694794715621,-0.00206415959625909,0.003297758945234981,0.004735478507840234,4.147628643148994e-05,0.0515412111944151,0.0995475113122172,-7.915057915057013e-05,True,False,False
0,1.015905976781697,0.0016686191296867788,1.0111626900056314,1.018973485215272,0.006494623428204158,0.0034936622605825493,0.0003514260265207362,0.013917905359825011,0.004824846698934657,0.016497804614149576,2.1089068879577566e-07,0.09250735772113246,-0.2663376184817089,0.002203691342853029,-0.2701486471952339,-0.26269210046580105,-0.4694007914075749,6.984521743443668,-37.01,27.29,32.96054545454546,0.012910159830756602,32.95,32.99,-2.45111038206275e-05,3.413945791075336e-07,-2.5379902367131716e-05,-2.3172954335207218e-05,0.0005423891727594722,0.0005369482072841214,-0.002782956462988,0.0020340842688913816,-2.1031719963608902e-05,2.9293316357467723e-07,-2.177719139845672e-05,-1.9883522581199616e-05,-0.030566996856820128,0.00042574202707808793,-0.03165044714263938,-0.02889823434762726,0.0006579363262795095,0.0003879518297237374,4.246381706081113e-05,0.002783157390518195,0.13114754098360654,-0.00010621463832471857,True,False,False
0,1.0153651680138887,0.0017821241791926875,1.0085060107648132,1.019345208251897,0.004999220926916408,0.0031159673372805788,0.0007564323632437706,0.015112496912883348,0.0035122127208202973,0.01597752772023271,1.5810922086856305e-07,0.1395304254448838,-0.26681637874746533,0.002665537796162488,-0.27062691540718675,-0.263484794508217,0.059044117647058816,5.500523239223688,-17.28,11.91,32.93198198198198,0.015481356519131486,32.91,32.97,-2.4245221506826643e-05,4.895509327176295e-07,-2.5379902367131716e-05,-2.3172954335207218e-05,3.28980731167644e-05,0.0004446509062012973,-0.001406181724873769,0.0006599828932098349,-2.080357999863392e-05,4.2005852531928617e-07,-2.177719139845672e-05,-1.9883522581199616e-05,-0.030235423709004755,0.0006105029757590913,-0.03165044714263938,-0.02889823434762726,0.0002993214527675129,0.00033185137060255416,4.147628643148994e-05,0.0014065622389211876,0.14027149321266968,-0.00033520533520537896,True,False,False
0,1.0137449074127995,0.0020814148882654635,1.0075653497839747,1.0188837811250993,0.009636467787389075,0.0038300505545654485,0.002016486029914184,0.01707097479023647,0.007521027879482826,0.019161995130516113,1.9203175707915854e-07,0.09839475924699526,-0.27805394557040575,0.005060062294321174,-0.28414359890082924,-0.26910678706589136,-0.017901583710407228,5.0847298784803945,-13.82,15.12,32.904545454545456,0.014053395138865273,32.89,32.93,-2.3847646309899067e-05,3.469170964947444e-07,-2.427642835116947e-05,-2.2621217327226096e-05,0.0001548008242173049,0.00031854128823992806,-0.0007174601855125676,0.0006606512338180064,-2.0462441130819226e-05,2.9767175225807304e-07,-2.083035698982817e-05,-1.941010537688534e-05,-0.029739620668726832,0.0004326289781045251,-0.03027434074513332,-0.02821018114887423,0.00021939027160804034,0.0002797519149801411,4.147628643148994e-05,0.0007181729363750358,0.14479638009049775,-0.00011252620426933701,True,False,False
0,1.011961852767536,0.0015997899887630214,1.0081551677029936,1.0151107023245471,0.004486817045623629,0.0020737180541968783,0.001030457909823178,0.009251706663031723,0.0035018254012934924,0.012343778432695861,2.0327627303640128e-07,0.060565628437994734,-0.2799768602091518,0.0012422061053705999,-0.28427833457250007,-0.2782056028046282,0.02872244205765976,16.664972812520148,-129.4,137.34,32.884414414414415,0.014935295881336224,32.84,32.91,-2.3883042981637162e-05,7.406748167754024e-07,-2.869032441501846e-05,-2.1517743311263846e-05,0.0005463908550495,0.0018388224026449846,-0.003473014683565544,0.010978107512072599,-2.049281319782556e-05,6.35535039324018e-07,-2.461769462434238e-05,-1.8463270968256787e-05,-0.02978376270172861,0.0009236713679637104,-0.03577876633515756,-0.02683407475136817,0.0006661829878063205,0.0017991217668639236,4.147628643148994e-05,0.010978158449035711,0.1537591859807801,-0.00018357318357316158,True,False,False
0,1.0061551732258853,0.002913654228740772,0.9965334387542147,1.0138240445532312,0.005414609663726729,0.004067836278673096,0.0006617477473198757,0.014116909882062094,0.005009528692688332,0.016930970420086892,9.51256367426323e-08,0.09029650318299318,-0.3043798036985351,0.011209109729189695,-0.3214094277374727,-0.28457472190031086,0.11131787330316734,9.669852995225275,-83.56,30.05,32.88781818181818,0.014423592942160175,32.87,32.91,-2.718365797014693e-05,7.171747314110368e-07,-3.089727244694296e-05,-2.3172954335207218e-05,0.002228151171413189,0.0008481836753290482,-0.004163072904143089,0.006852461681987105,-2.3324901489484166e-05,6.153708223992674e-07,-2.651136344159949e-05,-1.9883522581199616e-05,-0.03389985183087044,0.0008943651791961921,-0.03853097913016968,-0.02889823434762726,0.0022448510586228175,0.0008036900312099914,5.036406209538064e-05,0.0068525297112368945,0.15384615384615385,0.0001805107860153721,True,False,False
0,1.004316926352304,0.0034001044074737988,0.9976010017982138,1.011113010107141,0.010021103029965126,0.006763721262500015,0.0005905211016547286,0.028047366984899992,0.0069782350544154706,0.02752229980157743,2.0083861001704562e-07,0.20706107851613284,-0.31663549076041003,0.00760363134907412,-0.3220254171829645,-0.29332059543464506,0.038264556246466915,9.80871772573679,-29.08,51.2,32.895225225225225,0.01285208485717623,32.87,32.91,-2.6281156031752468e-05,1.6315317849398337e-06,-3.3104220478867456e-05,-2.3172954335207218e-05,0.0024238295879377056,0.0017430734131469922,-0.0062299058628348634,0.01029072265392774,-2.255051090414656e-05,1.3999336734767703e-06,-2.8405032258856593e-05,-1.9883522581199616e-05,-0.032774371146032336,0.0020346299908406687,-0.041283191925181796,-0.02889823434762726,0.002535202954571386,0.0015768894991855613,4.147628643148994e-05,0.01029077465639257,0.14471452798191067,-3.738153738153356e-05,True,False,False
0,1.008017344582044,0.0020914961311058336,1.0001097070884095,1.0115333786280063,0.008608698683264115,0.006655255474780983,0.00019544187436591602,0.023838081295348014,0.0065763332578774245,0.022974466685401252,1.2199886883536293e-07,0.14536569290118478,-0.3000107424330395,0.007938741889522455,-0.3102582151800384,-0.2866479512875105,-0.09632352941176478,9.157114375802802,-63.68,37.41,32.854,0.02255269059804062,32.81,32.89,-2.2542576079482174e-05,1.1923760279982533e-06,-2.5379902367131716e-05,-1.9862532287320473e-05,0.001046025152708707,0.0007038708124594134,-2.8738646151366284e-05,0.006166413505058589,-1.9342627359075837e-05,1.0231166615627975e-06,-2.177719139845672e-05,-1.7043019355313955e-05,-0.028112110217830243,0.0014869731925046044,-0.03165044714263938,-0.02476991515510908,0.001046855734764763,0.0007032635461845604,4.246381706081113e-05,0.006166478688929445,0.13122171945701358,-0.0005117778328787302,True,False,False
0,1.0058209984663349,0.0017787107622345428,1.0005026136954243,1.0101172715544993,0.0049152491388605715,0.0033791765536991787,0.0007932364001906314,0.013506625557165485,0.004020911414099431,0.016514550369523057,1.6017808594781524e-07,0.10667575422559486,-0.30534854833157504,0.0030559154037275026,-0.3088927041727225,-0.29949966075330114,-0.02116449971735429,5.936931511300281,-19.01,12.9,32.79234234234234,0.020313674523466784,32.75,32.83,-2.2340049654232328e-05,4.104262815111899e-07,-2.3172954335207218e-05,-2.0966006303282724e-05,0.00041064930344039013,0.0003441104838873513,-0.000716123504296225,0.0006626562556425202,-1.9168849829828003e-05,3.521657238130723e-07,-1.9883522581199616e-05,-1.7989853763942512e-05,-0.02785954612894472,0.0005118292080486044,-0.02889823434762726,-0.02614602155261514,0.0004474163520082949,0.00029613441275768576,3.851369454352637e-05,0.0007167741720293528,0.1582815149802148,-0.0005324675324675132,True,False,False
0,1.0042549931279738,0.0015769847613785095,0.999117159937941,1.0071643959756467,0.006330019583612057,0.006294992297125634,2.480428592243353e-05,0.0227476267770129,0.005463645393125314,0.021750645513707548,1.4230743495408094e-07,0.1443182076417705,-0.3132309090768467,0.007009380535615823,-0.33007200991297414,-0.3068089962692786,0.08121606334841636,5.772406136154595,-16.02,23.52,32.73163636363636,0.016729212637267264,32.71,32.77,-2.2403393553713187e-05,5.690291560662061e-07,-2.869032441501846e-05,-2.04142692953016e-05,0.000842268480629893,0.0012130396114682124,-0.000722806910377938,0.008914616256421681,-1.9223201978349497e-05,4.882547089308016e-07,-2.461769462434238e-05,-1.7516436559628233e-05,-0.027938540236696847,0.0007096176717376994,-0.03577876633515756,-0.02545796835386211,0.0008550517652392469,0.00120441529032381,3.950122517284756e-05,0.008914676286206232,0.14932126696832582,-0.0003266686202466208,True,False,False
