,EDA_mean,EDA_std,EDA_min,EDA_max,EDA_phasic_mean,EDA_phasic_std,EDA_phasic_min,EDA_phasic_max,EDA_smna_mean,EDA_smna_std,EDA_smna_min,EDA_smna_max,EDA_tonic_mean,EDA_tonic_std,EDA_tonic_min,EDA_tonic_max,BVP_mean,BVP_std,BVP_min,BVP_max,TEMP_mean,TEMP_std,TEMP_min,TEMP_max,ACC_x_mean,ACC_x_std,ACC_x_min,ACC_x_max,ACC_y_mean,ACC_y_std,ACC_y_min,ACC_y_max,ACC_z_mean,ACC_z_std,ACC_z_min,ACC_z_max,Resp_mean,Resp_std,Resp_min,Resp_max,net_acc_mean,net_acc_std,net_acc_min,net_acc_max,BVP_peak_freq,TEMP_slope,0,1,2
0,1.3979684884184072,0.14212839500033314,1.109298662480257,1.678399464596154,1.8286466800415988,1.0941151699995388,0.3703718448675747,4.327158402584045,1.2872297863894322,1.96107552424159,5.86535549018663e-08,11.710735943358905,1.2278044130911083,1.0017936627320914,-0.5999062719487944,2.550225067587716,-0.18167326172979104,107.67879846954864,-358.13,554.77,35.81709090909091,0.012731918608737857,35.79,35.84,2.366352592827641e-05,8.94181485553418e-06,-1.9310795279339348e-05,7.007060001360278e-05,0.021413575906739486,0.017052549105064797,-0.04124309148869152,0.05226865118394428,2.030445688277317e-05,7.672512318672817e-06,-1.656960215099968e-05,6.012398494791312e-05,0.0295100101555683,0.011151045199089018,-0.02408186195635605,0.0873827562416348,0.025688968650723856,0.009443548081538569,5.33266539833442e-05,0.052268657377508465,0.13566986998304126,-0.00016905980208731803,False,True,False
0,1.2101317674035457,0.092299131682188,1.014137872636249,1.4857995814446943,2.1109571853194464,1.2291722511400092,0.540783574244884,4.461295191018592,1.4692771168315963,2.867105708678988,3.4907387203020335e-08,17.430256888008586,0.37580038843461444,1.1776194651315297,-1.2149235778082526,1.8705673636050693,-0.8301470588235295,118.77568459744303,-392.28,438.16,35.79756756756757,0.030036832426393382,35.75,35.87,1.3913883618691407e-05,1.6702213411614888e-05,-3.0345535438961837e-05,5.738064883003692e-05,0.029094107145015445,0.015908980707732563,-0.004780950339038131,0.052997473159795756,1.1938789293866705e-05,1.4331311956252988e-05,-2.6037946237285214e-05,4.923538924868476e-05,0.017351549728282012,0.020828784725114072,-0.03784292593141665,0.07155753267031512,0.029165849308243733,0.01577694708106256,5.431418461266541e-05,0.05299747653062995,0.09502262443438915,-0.00078869778869776,False,True,False
0,1.010977164701998,0.1027831346412562,0.8322161167473113,1.1909666436032378,0.15306715587131778,0.12971226066199007,0.006972866444502591,0.5452556472237626,0.10525435133781763,0.24640662455044457,5.303034544823504e-08,1.301887673913666,1.7274534403513746,0.29470302664818965,1.1367540494971722,2.0369006233903604,0.9396834369700398,42.20196927852661,-240.61,209.89,35.71290909090909,0.02773880316453539,35.66,35.75,1.6710461877882547e-05,8.853249473518395e-06,2.206948031924497e-06,4.358722363050881e-05,0.0322421231909387,0.01394689304906513,-0.010279360863588828,0.041983943595490084,1.4338389541739967e-05,7.596518910678744e-06,1.8936688172571063e-06,3.739995914082785e-05,0.02083907111793923,0.011040598204391811,0.00275221279501212,0.054356202701489366,0.03269044516850886,0.012859736353352651,5.5301715241986593e-05,0.04198394586781187,0.07687959299039004,-0.0007169938913058141,False,True,False
0,0.7751874460203967,0.04660148466776797,0.6939961352625406,0.876819417928938,0.1782723846197622,0.12713784791482655,0.002814393088312849,0.362001176673944,0.11126835001386141,0.20194630379811807,3.135084281069567e-08,1.120160175330418,0.9872456458692074,0.04264083104875957,0.9123845529294374,1.127028011983083,0.10740384615384634,41.61864338063139,-289.26,145.36,35.70081081081081,0.01959290851002197,35.66,35.73,2.762367447538074e-05,2.5555057146194463e-06,1.1034740159622484e-05,3.255248347088633e-05,0.018220170960452888,0.004148583303174677,0.0041637412447512595,0.03305128214264778,2.370245706532304e-05,2.1927482723176064e-06,9.468344086285531e-06,2.7931615054542318e-05,0.034448582040283206,0.003186887694572978,0.013761063975060599,0.04059513872642877,0.01822021075400835,0.004148569560925255,0.0041639195255542385,0.03305129308878623,0.14027149321266968,7.528957528957787e-05,False,True,False
0,0.6574939813318504,0.03469766309873048,0.594666882768196,0.718106376181546,0.03512251991553542,0.039848327200597375,0.001144346562782183,0.13295574566879653,0.026792542932441318,0.11552900174695922,5.808556968744938e-08,0.9994624845072897,0.7721503734168585,0.0779326078924633,0.6156861159620073,0.9077721311188658,-0.0736199095022622,43.13383344916959,-197.37,194.12,35.744727272727275,0.019475182556604444,35.71,35.79,2.315048540728039e-05,3.513246693207751e-06,1.1034740159622484e-05,3.089727244694296e-05,0.02172584741117252,0.00329372138069231,0.011728316387385562,0.03235320383477217,1.986424314753976e-05,3.0145366424680575e-06,9.468344086285531e-06,2.651136344159949e-05,0.028870214081614692,0.004381255181912317,0.013761063975060599,0.03853097913016968,0.02172587087004426,0.0032937111391630513,0.011728366161666363,0.032353207788200895,0.14932126696832582,0.0004417194508938031,False,True,False
0,0.5404595921131683,0.03018911202394558,0.4864942002203284,0.5933789751944027,0.033295663872445265,0.052156918146925524,1.6707952953012238e-05,0.19556181582501006,0.039243813920368555,0.11272299158415035,3.6988666796133884e-08,0.6021472767540099,0.41861487933218755,0.12927647347732033,0.11198847409205842,0.612348485366535,0.26398530243075125,71.17508438107839,-367.11,363.29,35.80585585585585,0.022581910236795084,35.75,35.84,2.236032810852009e-05,7.081870147235859e-06,-2.206948031924497e-06,5.296675276618793e-05,0.021681303182280988,0.009306879556009078,-0.02610592111612486,0.047477007395175415,1.9186249730501438e-05,6.076589240748982e-06,-1.8936688172571063e-06,4.5448051614170555e-05,0.027884834726839426,0.008831568913220202,-0.00275221279501212,0.06605310708029088,0.022395876557603174,0.007422055940744207,5.9251837759271344e-05,0.0474770074174404,0.08592425098925946,0.0005208845208845139,False,True,False
0,0.5028694065538133,0.018676532229066203,0.4743745567389848,0.5689634790783592,0.37546236372758185,0.14871491879436904,0.13149760342147945,0.671080504134831,0.28232030108616984,0.5965588095930897,3.6863081476212756e-08,3.6301306471158625,-0.037847164802348086,0.12985926595212124,-0.20395265238639454,0.21613162309564035,0.7257070135746597,112.47824300742559,-670.2,361.86,35.84709090909091,0.019028971371556194,35.81,35.89,2.6145094190417755e-05,9.190214876261558e-06,-2.482816535915059e-05,6.013933386994254e-05,0.018711847916458163,0.012846672812215618,-0.03644676931566545,0.05646647779971228,2.2433763222539642e-05,7.88565162537741e-06,-2.1303774194142445e-05,5.1602475270256146e-05,0.03260469286851179,0.011460816750316263,-0.03096239394388635,0.07499779866408027,0.020428101377632686,0.009888791073579676,3.950122517284756e-05,0.05646650008166608,0.11764705882352942,0.00023767554042784746,False,True,False
0,0.506633285618332,0.017379424421331616,0.47015197304056133,0.5517079848832236,0.07388404696574112,0.060063618931515086,0.001406317471279843,0.21042524469692844,0.053683378031875444,0.17688788920873427,5.593459892483388e-08,1.4822558128512051,0.2751477288056129,0.024289486298217238,0.2210635961476251,0.3125812436385039,-1.083674392312041,39.31696861111272,-182.86,182.92,35.814504504504505,0.019759404607277264,35.77,35.84,2.6714046092645395e-05,4.181501701534762e-06,3.86215905586787e-06,3.586290551877307e-05,0.018315138324221915,0.005682805375924963,0.007608685622773609,0.04267199679424311,2.2921951643917233e-05,3.5879319616778404e-06,3.313920430199936e-06,3.0772118280427976e-05,0.03331421419951111,0.005214614172538269,0.00481637239127121,0.04472345791894695,0.018315179598334244,0.005682784015119208,0.007608810658800294,0.04267199902992546,0.1492368569813454,-0.0005075465075465243,False,True,False
0,0.48894359628740874,0.01763538391236599,0.45643157305155735,0.5179903104042501,0.006379717978421063,0.012360869848536234,1.4411039417116049e-05,0.063472861487316,0.0007673516025443498,0.004451201767602393,1.0619931387068071e-07,0.04062966810565002,0.28896477399097376,0.047346369024562976,0.19728423261784647,0.34422139531881996,0.03632352941176488,24.489985439266256,-120.43,139.13,35.78418181818182,0.010612595786347734,35.77,35.81,2.966647450606199e-05,1.1513187868553869e-06,2.2069480319244968e-05,3.475943150281083e-05,0.014342616981976291,0.0017654325264410211,0.008976103592373441,0.030306421094325544,2.5455278908898407e-05,9.878875505233989e-07,1.8936688172571062e-05,2.9825283871799426e-05,0.03699609122525907,0.0014357720483151063,0.027522127950121197,0.04334735152144089,0.014342671101674875,0.001765426268940375,0.008976168628124321,0.030306441184955284,0.15384615384615385,-5.770574577900579e-06,False,True,False
0,0.4239220821852044,0.01717315340210963,0.39553452896478575,0.45629184525577726,0.002722419666123122,0.004465243284654451,8.733768129165285e-07,0.016750282082062435,0.002502723591961485,0.013377409860527684,9.390346927352965e-08,0.11799606312057764,0.09507227261653341,0.054694321723856555,0.008589135239383566,0.19543950676100014,0.06738835500282642,16.894433772598582,-39.38,77.19,35.81342342342343,0.018364763468788962,35.79,35.84,2.97064192668208e-05,8.931354032609253e-07,2.7035113391075092e-05,3.475943150281083e-05,0.01509298582518539,0.0030524279495004816,-0.0020233908191606403,0.020676349674215805,2.548955345762704e-05,7.663536423504815e-07,2.3197443011399553e-05,2.9825283871799426e-05,0.03704590503150364,0.0011137999848548873,0.03371460673889847,0.04334735152144089,0.015109611305717948,0.0029692002860102484,5.628924587130778e-05,0.020676384234581433,0.1537591859807801,0.0004933309933310232,False,True,False
0,0.3761661751767667,0.00882558562558602,0.36147136646285805,0.39550396767918455,0.02470405916723519,0.027063150671200433,7.010907816135769e-05,0.11059154372931518,0.026720274421144784,0.07981658448772827,3.896033295980317e-08,0.5155422284683655,-0.07198366003954594,0.03924251842683079,-0.12837264051682795,0.006866349785199316,-0.38360294117647115,77.40901627637943,-596.97,368.75,35.8729090909091,0.027001374567301114,35.83,35.91,2.5962846219455663e-05,1.0528880932757796e-05,-4.965633071830118e-06,5.627717481407468e-05,0.017330850710524384,0.012720681393726962,-0.015785791475437582,0.051605326587693595,2.227738559396525e-05,9.034292250909908e-06,-4.260754838828489e-06,4.828855484005621e-05,0.03237741737752097,0.013130223458422838,-0.00619247878877727,0.07018142627280906,0.01789354858557875,0.011915282524826093,5.826430712995015e-05,0.05160532660817743,0.14932126696832582,0.0007123052994612355,False,True,False
0,0.35344128760471716,0.01378453192008706,0.33800492133647975,0.3892098000433985,0.043637728910098594,0.029927855808491388,0.007106475562016206,0.12341133158874038,0.026175639558451393,0.08215666283867176,4.5901583423102466e-08,0.5721504126183075,-0.1598438473955317,0.011500866215629261,-0.16986629803185305,-0.1292850394432601,-0.15675339366515798,90.28712499696503,-449.14,338.57,35.88855855855856,0.013131976715209746,35.87,35.91,2.605022538361557e-05,1.0474254367319761e-05,-7.172581103754615e-06,5.020806772628231e-05,0.014801349207965329,0.017261640134960447,-0.02886281229539418,0.05161602003742433,2.2352361169309133e-05,8.987419999244944e-06,-6.154423656085595e-06,4.308096559259917e-05,0.03248638507868096,0.013062100453181515,-0.00894469158378939,0.06261284108652573,0.019661001472493344,0.011414941249364624,5.33266539833442e-05,0.05161602169627144,0.09502262443438915,-0.00021411021411022423,False,True,False
0,0.3174398118944547,0.01822802785482682,0.2868168646781455,0.3568084859483366,0.029325750031425193,0.02528151535490446,0.002440060807154991,0.09725858155858351,0.022559680176767172,0.1037290868805518,5.425579907569755e-08,0.8358344122913759,-0.25513806330652217,0.05471295617006054,-0.33001543117952914,-0.17037405295494018,0.656110797060486,85.57253533887236,-400.42,421.48,35.844234234234236,0.024403783221964286,35.79,35.89,2.805567099792831e-05,7.988297926817333e-06,-5.517370079811242e-06,4.910459371032006e-05,0.016549594084926036,0.011225575089159652,-0.026787290908796176,0.049546513716299874,2.407313110570743e-05,6.854348388884536e-06,-4.7341720431427655e-06,4.2134131183970615e-05,0.03498731079128119,0.009961945386354986,-0.006880531987530299,0.06123673468901967,0.017938924840336885,0.008834299713813576,6.418949090587729e-05,0.04954651424967501,0.06331260599208592,-0.0006060021060021162,False,True,False
0,0.2764763976573389,0.0154246212406271,0.2542807464259879,0.3114652922928663,0.03513918862303896,0.03214977441670899,0.0009465901575820238,0.10394781991904742,0.026407243132664248,0.09841229011374794,4.738329506537298e-08,0.7711549798882079,-0.3852512693783824,0.02916977200613711,-0.41634622144296474,-0.33052003081924786,0.059230769230769115,78.7363756518833,-428.17,285.6,35.79472727272727,0.014316801633308373,35.77,35.83,2.8362028412531954e-05,8.759478774896277e-06,-4.965633071830118e-06,4.800111969435781e-05,0.01642231994758096,0.011765401862606984,-0.02197158685813314,0.04679496926189593,2.4336000676978908e-05,7.516059087708526e-06,-4.260754838828489e-06,4.1187296775342064e-05,0.035369359115085056,0.010923659829399825,-0.00619247878877727,0.05986062829151361,0.017374481030390236,0.010305812431891168,5.727677650062896e-05,0.04679496994522842,0.06334841628959277,-0.0002495773504947779,False,True,False
0,0.24136438139815777,0.00964064517995323,0.2250089458180648,0.2617580893359861,0.014646457717239252,0.01809524359335552,4.444290883773811e-05,0.06360000941580163,0.014970521960810593,0.0790991208403124,5.656391732777877e-08,0.617993231946865,-0.47167277822020115,0.03190983205132679,-0.5186986968687904,-0.41701951614530797,1.8578971170152643,93.88946795794543,-727.64,595.6,35.75756756756757,0.011136852518979772,35.75,35.79,2.8818896613710897e-05,7.84077681807937e-06,-5.517370079811242e-06,4.358722363050881e-05,0.017329640311690077,0.009564231323078475,-0.012348198844105117,0.04679697428372044,2.4728015828062674e-05,6.727768098155772e-06,-4.7341720431427655e-06,3.739995914082785e-05,0.03593910452400725,0.009777976630802118,-0.006880531987530299,0.054356202701489366,0.01762753085858877,0.00900282550777474,6.221442964723492e-05,0.04679697539055871,0.1492368569813454,1.2460512460526253e-05,False,True,False
0,0.21171248090242165,0.009748003179263458,0.19802452178390817,0.2424884578466826,0.005486874197205684,0.011327620266141447,1.4979243491372212e-05,0.056249805789767765,0.00043865016381653207,0.002815346316849987,6.154921561307702e-08,0.02715260989512403,-0.5521077933720417,0.021555909417965688,-0.5880351519671064,-0.5191960637294268,-2.0777092760180986,64.07169494619441,-335.37,351.65,35.77072727272727,0.016462862900451205,35.75,35.79,3.1653726353813003e-05,1.2070683281736184e-06,2.427642835116947e-05,4.248374961454656e-05,0.014271081849187694,0.004578570770507132,-0.01783858928135776,0.020676349674215805,2.7160437708148017e-05,1.035723370145604e-06,2.083035698982817e-05,3.64531247321993e-05,0.039474328085926096,0.0015052954800917461,0.03027434074513332,0.05298009630398331,0.014806176547705715,0.0023212813105517854,6.122689901791373e-05,0.020676384234581433,0.06787330316742082,0.00042576020557670737,False,True,False
0,0.1875241819584305,0.005607325559851911,0.17731908115399148,0.1977462593786023,0.001073908684581683,0.0016856340985448076,3.5436586682370727e-06,0.005376061993438382,0.0008538841069891768,0.004354834232638557,8.307897960590149e-08,0.03550017378822348,-0.6214883913441599,0.017940510391915614,-0.650800592866761,-0.588625977680619,-0.027009609949123783,13.796859171910214,-34.68,37.36,35.82765765765766,0.024194475513484387,35.77,35.87,3.0943406388853245e-05,2.3750863758594575e-07,2.9242061422999583e-05,3.2000746462905206e-05,0.015898469746335072,0.00019580166177391296,0.015173929106016082,0.017237420361667,2.655094860896588e-05,2.0379396991669402e-07,2.5091111828656657e-05,2.745819785022804e-05,0.03858851126204282,0.00029618926310644785,0.03646681953391059,0.03990708552767574,0.01589852204119279,0.00019580096114338327,0.015173981789252527,0.017237465067125785,0.1537591859807801,0.0005999473499473285,False,True,False
0,0.17303039109729654,0.0062462499898734165,0.1645363405535524,0.19081954300062853,0.01361155108961221,0.016221777958475552,0.00012568238011618533,0.05198867644654136,0.015385211912448255,0.06707977260188654,5.4656691061971685e-08,0.41333194656220923,-0.677710722010046,0.012424581230852065,-0.6939257609123337,-0.651371284159467,-0.9814479638009054,75.7503236475394,-409.52,347.37,35.895272727272726,0.025974902880465525,35.84,35.93,2.8202873506383553e-05,8.691044231495034e-06,-3.86215905586787e-06,4.4138960638489935e-05,0.017569401382091007,0.011208914664013433,-0.008218542970370597,0.0474796807576081,2.4199438021888254e-05,7.4573389189562245e-06,-3.313920430199936e-06,3.7873376345142124e-05,0.03517088223082937,0.010838317345913487,-0.00481637239127121,0.055044255900242395,0.01790204688937106,0.010669044047700072,5.431418461266541e-05,0.04747968095798174,0.05429864253393665,0.0006030250433919765,False,True,False
0,0.16231954351764746,0.008003607211660307,0.15362961158579433,0.18141780674696656,0.01071111288384289,0.017319684769741824,4.0892785152539475e-05,0.05500276134571215,0.0034141233882089093,0.016790886525324115,1.2474108140869689e-07,0.12203630896485618,-0.7078152015299205,0.008084235037089863,-0.7240854705308899,-0.6942329490709175,0.9487669683257913,74.4833102924253,-351.18,402.66,35.90153153153153,0.014659666261746543,35.87,35.93,2.8277769932806333e-05,6.3812755703804545e-06,-2.758685039905621e-06,4.579417166243331e-05,0.017219238781903352,0.008677624079817038,-0.015781113091180382,0.046790290877638724,2.4263702800754443e-05,5.4754449978672785e-06,-2.3670860215713828e-06,3.929362795808496e-05,0.03526428311753793,0.007957880303137195,-0.0034402659937651497,0.05710841549650149,0.017533290660767743,0.008023475736297872,0.0006451159047597779,0.04679029096800578,0.11764705882352942,-0.00026956826956824455,False,True,False
0,0.1486227644395473,0.003856529846498448,0.14213966030426178,0.1654030760019093,0.005026160397869808,0.009938170749855238,3.4502261272948166e-06,0.03716508303216815,0.004987501728009216,0.03667866596615504,4.064798675429415e-08,0.37643092219142715,-0.7433895894112696,0.010457621084566555,-0.7553159037179773,-0.7244274115459004,0.06908988128886369,34.66468994330954,-116.17,380.05,35.900363636363636,0.014772108154088134,35.89,35.95,2.9687071023328253e-05,2.2186268540300934e-06,1.2138214175584734e-05,3.3104220478867456e-05,0.0060875602277516705,0.01645049702340605,-0.041941838137175294,0.01586198230476911,2.5472951723086614e-05,1.9036898149986686e-06,1.0415178494914085e-05,2.8405032258856593e-05,0.03702177646910393,0.002766777072541421,0.01513717037256666,0.041283191925181796,0.01692251153601344,0.004585306744739461,0.002716406103502213,0.04194185033559866,0.14471452798191067,0.00023488041836664298,False,True,False
0,0.1454418428413286,0.0021171784280749678,0.141027241004986,0.149701530857227,0.0025357297242450173,0.00460589980280711,3.0892006325165397e-07,0.016351163618679648,0.0007610599648531493,0.004459611616475532,8.544516124785696e-08,0.03634041190865375,-0.7507298859966717,0.003905113267519707,-0.7568427867348997,-0.7449163604462529,-0.21480769230769228,19.239317651867484,-38.32,34.55,35.92513513513513,0.012711116456571865,35.91,35.95,2.9891787922217176e-05,2.109806678573229e-07,2.9793798430980708e-05,3.0345535438961837e-05,-0.02060538687124797,2.555691313577377e-07,-0.020605505569749646,-0.020604837229141477,2.5648608785320863e-05,1.8103168084891313e-07,2.5564529032970932e-05,2.6037946237285214e-05,0.037277072226107315,0.00026310709866184654,0.037154872732663616,0.03784292593141665,0.020605424517863898,2.550340872251942e-07,0.020604876026455,0.020605542967865546,0.14479638009049775,-0.00013513513513515622,False,True,False
0,0.13402306097082242,0.006238488253515282,0.12543020594308,0.1435049979284473,0.010321837560974339,0.008955180541914735,3.097362204198807e-07,0.035485922851412055,0.007958683133573091,0.02592719695314416,4.753232196730295e-08,0.18516999782207022,-0.7933902546253331,0.017496572908046692,-0.8093593846311768,-0.757110230103501,0.0848728094968907,38.50515249206095,-314.16,225.36,35.901636363636364,0.012527201429143665,35.89,35.93,2.845466725228754e-05,3.219428347488256e-06,1.8759058271358226e-05,3.8069853550697574e-05,-0.00013190845479660394,0.019267695788991974,-0.03161636177162264,0.026869496803601248,2.4415489309957298e-05,2.7624262025398967e-06,1.6096184946685404e-05,3.2665787097685084e-05,0.03548488598585965,0.00401484392129313,0.02339380875760302,0.04747567071395907,0.018465039290567982,0.005469878534310642,5.2339123354023015e-05,0.03161638351235566,0.14471452798191067,-9.232919324661479e-05,False,True,False
0,0.12246464920385537,0.0030919563329186027,0.11683163245179791,0.12903780728226105,0.004074809768576228,0.003911070538419509,0.00010304287211451612,0.01508659684902168,0.003407278610137565,0.014106703791662635,1.0105284550809834e-07,0.10789979764279274,-0.8219554683523751,0.009311136384514293,-0.8383000932893556,-0.8062345036030718,0.4248190045248865,48.41696728265902,-186.68,214.5,35.90297297297297,0.014434465987828727,35.87,35.93,2.80143841665529e-05,2.8176158612713468e-06,1.4896899215490354e-05,3.917332756665982e-05,0.01581323638746374,0.00687186831061242,-0.005464993494142133,0.028922294609521424,2.4037704995075004e-05,2.4176515342981644e-06,1.2782264516485466e-05,3.3612621506313634e-05,0.03493582333261284,0.003513756695964373,0.018577436366331808,0.04885177711146513,0.015859146268724096,0.006765222091782627,0.0006500378253526249,0.028922306451330083,0.13574660633484165,-0.00013127413127412088,False,True,False
0,0.11379187027222076,0.002623367224546689,0.10888644287643394,0.11867833227020239,0.001896574548453814,0.0026920491546838306,9.155285741874856e-06,0.010713531575369757,0.0011715014020980804,0.006858080476862016,1.0498542388215348e-07,0.05289196866707937,-0.8463169178977175,0.007338990008303385,-0.8574514873773287,-0.8378469930139494,-0.40149886877828034,25.921866357904836,-126.98,81.53,35.87581818181818,0.011760750941965725,35.84,35.89,2.983311905485267e-05,2.624157108644838e-06,2.0966006303282724e-05,3.3104220478867456e-05,0.01137189230697863,0.007256529642401523,0.003478361408430914,0.029616362873747994,2.5598268041875684e-05,2.2516545094589267e-06,1.7989853763942512e-05,2.8405032258856593e-05,0.037203908198185615,0.0032725006053887077,0.02614602155261514,0.041283191925181796,0.011372013271517323,0.007256447279610454,0.0034786082427091004,0.029616380942952984,0.14479638009049775,1.3705114622537963e-05,False,True,False
0,0.10638341083442399,0.002662763921061008,0.10174019419036467,0.11320410852197373,0.0015183572415955974,0.0027010522255097383,3.937522081400589e-06,0.010651865039852704,0.0012015090230994062,0.011052445165632344,1.1546661506008906e-07,0.11585613326012623,-0.8682934866687292,0.006225949145423574,-0.8799245106786311,-0.8575980904113595,0.19463538722442036,35.031677548965554,-182.35,204.13,35.895765765765766,0.013041859150062248,35.87,35.91,2.9781315693243582e-05,2.129963895205001e-06,1.2689951183565858e-05,3.2000746462905206e-05,0.013828272875976464,0.0035586595009304577,0.008982786998455153,0.03304192537413338,2.5553818236493234e-05,1.827612681353424e-06,1.088859569922836e-05,2.745819785022804e-05,0.03713930591821219,0.0026562083929929205,0.01582522357131969,0.03990708552767574,0.01382833287030962,0.003558643824566301,0.008982882581788384,0.0330419296050666,0.14019219898247595,0.0001937521937521745,False,True,False
0,0.09905429587674205,0.001753795213523234,0.09545578796453182,0.10313967607883938,0.00014112372414960925,0.00019354089982894353,6.875365383040973e-07,0.0006849966250802137,6.803421386825746e-05,0.0007061058935935476,1.152682573041415e-07,0.007406383340631851,-0.8891971648482629,0.004736970335088997,-0.8961061062747022,-0.8801764171885421,-0.03635746606334821,16.09907611303554,-47.62,36.83,35.91327272727273,0.013687809543839644,35.89,35.93,2.9730760605408204e-05,3.081636122606815e-07,2.869032441501846e-05,3.089727244694296e-05,0.014928007077615343,0.0007330660435825293,0.013796486027293678,0.017237420361667,2.5510439510758555e-05,2.644193767637052e-07,2.461769462434238e-05,2.651136344159949e-05,0.03707626031968391,0.0003843007738978857,0.03577876633515756,0.03853097913016968,0.014928058630512173,0.0007330631064604013,0.013796539832992864,0.017237465067125785,0.14479638009049775,0.00017023195004846402,False,True,False
0,0.09917134017484507,0.007646826246630876,0.09240124170975247,0.11356205750243403,0.006748724456261528,0.007184193506618261,3.173292145831588e-07,0.025150521465455936,0.005343809628983476,0.022328219029136988,6.158221819985155e-08,0.19756803506120446,-0.895594910042786,0.019310380391755144,-0.9164077003686617,-0.8516382853409787,-0.13580553985302432,28.942087404794755,-230.28,181.44,35.928378378378376,0.01687065987503844,35.91,35.97,2.7370519617395814e-05,4.006101800269524e-06,1.3241688191546983e-05,3.531116851079195e-05,-0.005579337722121558,0.02117929517152106,-0.0446873675261057,0.015173929106016082,2.34852378768471e-05,3.4374303101793596e-06,1.1362012903542639e-05,3.02987010761137e-05,0.03413288088684099,0.0049958786855566865,0.01651327677007272,0.04403540472019392,0.01998452918296874,0.00893839480236073,0.0014148088153995496,0.0446873847705235,0.14471452798191067,0.0002786942786943136,False,True,False
0,0.11367332606666937,0.0009459342476546806,0.11058927969782356,0.11582715188840922,0.0004940512277317655,0.0005987446324735227,7.380065969195759e-06,0.0025824333003528445,0.0002913369121615862,0.0020800853468371412,1.0151325059108013e-07,0.018802232638019716,-0.8450848554580515,0.001654704293621898,-0.8510197602780076,-0.8432614083763534,0.16654977375565633,18.05003655900274,-78.59,87.06,35.92909090909091,0.019608341912576904,35.89,35.97,2.255505881721931e-05,3.499798226389221e-07,2.1517743311263846e-05,2.372469134318834e-05,-0.03171185616046714,0.00039405165113909536,-0.03231176671706556,-0.030933655297734983,1.935333815555354e-05,3.002997203439233e-07,1.8463270968256787e-05,2.035693978551389e-05,0.02812767703228167,0.00043644840382714797,0.02683407475136817,0.029586287546380288,0.031711870095427946,0.00039405125437428707,0.030933671093891592,0.032311779803009706,0.14479638009049775,-0.00047958884656136634,False,True,False
0,0.11498749413395845,0.0009556919464680143,0.11173534307238879,0.11662023118039136,0.0006053290178454583,0.000761153484323299,8.215321328827155e-06,0.002717111734715987,0.0004019174224514449,0.002597409879841392,1.0181561689538363e-07,0.024615087304849292,-0.8414210987370295,0.002414122564598361,-0.8466219671935298,-0.8393647480694999,0.15525720746184296,21.10824801140168,-60.03,36.42,35.85756756756757,0.025874389451424402,35.81,35.91,2.3241609392761435e-05,2.6015095689740063e-07,2.2621217327226096e-05,2.372469134318834e-05,-0.030874308238149847,0.0003359166641512911,-0.031622376837096185,-0.030245602098981954,1.9942431961826954e-05,2.232221818230198e-07,1.941010537688534e-05,2.035693978551389e-05,0.028983851827110104,0.00032442575985050184,0.02821018114887423,0.029586287546380288,0.0308743234320699,0.00033591634615387825,0.03024561825448305,0.03162239157887335,0.13566986998304126,-0.0007339417339417146,False,True,False
0,0.11575203166002908,0.0006631343227495842,0.11424424404072892,0.11710083739739097,1.2467108060233214e-05,2.1245392589061684e-05,3.8955564680026454e-07,8.381612455829538e-05,8.702597787216677e-06,8.59837776099673e-05,8.457385227213434e-08,0.0009022663022443263,-0.838410419926105,0.0007929375957004489,-0.8399663027426101,-0.837189930176713,-0.4064592760180995,22.39284358501399,-56.72,33.99,35.77254545454546,0.024247817025981503,35.73,35.81,2.3622957030630737e-05,2.1408540738963452e-07,2.3172954335207218e-05,2.372469134318834e-05,-0.03040450684113665,0.0002900822972379886,-0.030934323638343152,-0.030245602098981954,2.026964679422065e-05,1.8369569846645355e-07,1.9883522581199616e-05,2.035693978551389e-05,0.029459418008601166,0.0002669789179083369,0.02889823434762726,0.029586287546380288,0.03040452277766088,0.000290082120523599,0.03024561825448305,0.03093433870801247,0.14479638009049775,-0.0006282713071704104,False,True,False
0,0.10913262996045306,0.00632306913443601,0.0995198524833,0.1165564764953753,0.01103853652742908,0.00968174751279068,2.4412207937624697e-07,0.035105827419920424,0.008556241455166784,0.020628453140738905,3.970723266855103e-08,0.09917506693961514,-0.8693660224688936,0.017505253119531952,-0.8861244904159078,-0.8390099094500529,0.16787895927601804,30.09100174361776,-171.28,101.42,35.6936036036036,0.031124173382022172,35.65,35.75,2.4956113420956166e-05,1.4966614912602945e-06,1.9862532287320473e-05,3.144900945492408e-05,-0.02716888623439695,0.0034265173192443,-0.032309761695241045,-0.01579113820030295,2.1413559858038855e-05,1.2842083977472198e-06,1.7043019355313955e-05,2.6984780645913764e-05,0.031121953792013463,0.0018664376534759395,0.02476991515510908,0.03921903232892271,0.027168906863183295,0.0034265121054605947,0.015791181728651613,0.03230977681862322,0.14027149321266968,-0.0008727623727623775,False,True,False
0,0.10003219227504793,0.0015016058282245576,0.0964519022877797,0.10320930067135103,0.0010938114675548853,0.0008722239785959528,5.466688665042799e-05,0.0029306247496391617,0.000820476583108548,0.0035780094674026782,8.274533656350835e-08,0.02458110514134851,-0.8875010981889291,0.004260954808957844,-0.8957038888503217,-0.8830493790849753,-0.1511984171848501,16.260216354443155,-36.17,29.38,35.66117117117117,0.010849276367887826,35.65,35.68,2.64135520385811e-05,5.891132076631419e-07,2.482816535915059e-05,2.869032441501846e-05,-0.024555215995115898,0.0008727726993741493,-0.026802662742784117,-0.0206088472727905,2.266411312134155e-05,5.054878026344778e-07,2.1303774194142445e-05,2.461769462434238e-05,0.032939477881094206,0.0007346638363873351,0.03096239394388635,0.03577876633515756,0.024555240734519517,0.0008727709651377609,0.020608878060969813,0.026802684523064696,0.14471452798191067,0.00014829764829765393,False,True,False
0,0.10581987303568936,0.009117701032374883,0.09421761575784914,0.1337623345155346,0.028086332961147202,0.025783052994508063,0.00027995394208692745,0.09296219714545438,0.02168243255137896,0.10998167716781992,4.7652363610595216e-08,0.9675993215932318,-0.8965127421636802,0.0025573501119672873,-0.8989131863898272,-0.8898623062448328,0.36792420814479615,67.53971868498061,-261.35,444.13,35.69709090909091,0.019220853284931703,35.66,35.73,2.9684574475780825e-05,4.545280605487278e-06,1.6552110239433728e-05,4.855285670233894e-05,-0.0076260279873977274,0.016113153382727174,-0.038503577165234656,0.02824092481685011,2.547080956379107e-05,3.900071965350757e-06,1.4202516129428297e-05,4.166071397965634e-05,0.037018663106213635,0.005668270959889325,0.020641595962590898,0.06054868149026664,0.013153623671753122,0.01202679033043192,4.6413939578095886e-05,0.03850358870275398,0.12217194570135748,0.0003062011135405785,False,True,False
0,0.09782608082461691,0.0018260622952218036,0.09369306720939416,0.10168548348552561,0.0022536816242503346,0.003520331405934968,1.1947591325020041e-05,0.012432249940331458,0.0016756309250153564,0.010284719016425423,9.936697511342407e-08,0.08722992367112745,-0.8949408864775578,0.0034590002059493668,-0.8993516085158103,-0.889450875474537,-0.25828151498021473,21.14504681064396,-68.34,62.53,35.68486486486486,0.019487285592261205,35.65,35.71,3.163874706852845e-05,9.256672352491267e-07,2.5931639375112838e-05,3.586290551877307e-05,0.0010462764869848345,0.0040662642274631716,-0.013030236977384606,0.013111106190973333,2.714758475237478e-05,7.942675374278314e-07,2.2250608602771e-05,3.0772118280427976e-05,0.039455647908584385,0.0011543693697918932,0.03233850034139241,0.04472345791894695,0.0033459068367969274,0.0025346418726343266,5.431418461266541e-05,0.013111171677983683,0.13566986998304126,-0.00041997191997195115,False,True,False
0,0.09832618229712818,0.0015044595437565212,0.09526119598675195,0.10124243974956329,0.0002606042402962,0.0004452102223212585,5.113433184433088e-07,0.0016379463740486982,0.00013686893032271207,0.0014244651567944405,1.0270580404693512e-07,0.014940942654790474,-0.8916586322449954,0.003395515628646161,-0.8976976458593005,-0.8873193942903294,-0.0901018099547512,15.41474173666121,-33.37,25.69,35.64263636363636,0.015778121696519296,35.61,35.66,3.1752964118823185e-05,2.9045374447989285e-07,3.144900945492408e-05,3.255248347088633e-05,-0.004748331836980112,0.0007287677144127702,-0.005466330175358475,0.0007268169540269659,2.7245588540145724e-05,2.492234483190352e-07,2.6984780645913764e-05,2.7931615054542318e-05,0.03959808426081493,0.0003622153763265792,0.03921903232892271,0.04059513872642877,0.0047504997258104665,0.0007157089852656942,5.727677650062896e-05,0.005466487245445363,0.14479638009049775,-0.0003724274733448592,False,True,False
0,0.09439879982018033,0.0014011281336538625,0.0916722459372452,0.09698745590950675,0.00013425297632995776,0.00023145356390668278,2.69176423840694e-07,0.0008354231750257354,0.0001268577130426109,0.0009763243876337809,1.4157955823488077e-07,0.009076052528442971,-0.9034769987610428,0.004187788432489145,-0.9107736393945705,-0.8978050222829776,0.0823176936122103,14.814500644765749,-32.69,26.58,35.6136036036036,0.01326600527615211,35.59,35.65,3.204563354152062e-05,4.399761591877465e-07,3.089727244694296e-05,3.3104220478867456e-05,-0.002692403212743698,0.002656187399965482,-0.005466998515966646,0.002791644890894227,2.7496713148206154e-05,3.7752095696781993e-07,2.651136344159949e-05,2.8405032258856593e-05,0.03996306273706581,0.0005486798951767196,0.03853097913016968,0.041283191925181796,0.0033881876875294465,0.0016797470499021654,5.727677650062896e-05,0.005467150104708824,0.1492368569813454,0.00011056511056509866,False,True,False
0,0.09000001204048076,0.010328348057877095,0.07436339901748727,0.10978813308243142,0.022629696819315363,0.017006960707790102,6.422920231559015e-05,0.05414498246943994,0.01944991862459042,0.0629465552447105,6.98013901123673e-08,0.41023531035541794,-0.9390339880998273,0.02202311090658426,-0.9708628043293116,-0.9104702281819906,0.38493212669683285,83.49262141181161,-404.55,327.42,35.63509090909091,0.017957414177341084,35.61,35.66,2.262933110675523e-05,1.1211849332281046e-05,-9.379529135679113e-06,4.855285670233894e-05,0.015567762660331975,0.02294270051145153,-0.06119863927435391,0.049537156947785474,1.9417067394595845e-05,9.620312375824845e-06,-8.048092473342702e-06,4.166071397965634e-05,0.028220299578267657,0.013981931038559074,-0.01169690437880151,0.06054868149026664,0.023549373061271417,0.014621808722869417,5.5301715241986593e-05,0.06119865330422782,0.0904977375565611,0.00044036697247703014,False,True,False
0,0.10328088510958888,0.0015675849705594378,0.0996522725705269,0.10841091307701181,0.006160376642382052,0.008193947681075486,0.00025068953414793076,0.031355822012958355,0.0027041524095849576,0.01028990952398052,6.881053129723091e-08,0.06511811877666629,-0.8823370530904616,0.01238129981111362,-0.920504113487542,-0.8585115323124923,-0.32160633484162865,22.46128978208052,-74.36,52.23,35.71279279279279,0.01950156968839142,35.66,35.73,2.7033865117301378e-05,3.7113847470982875e-08,2.6483376383093966e-05,2.7586850399056214e-05,-0.025822174944655902,0.0003401261602497921,-0.026113941203422916,-0.025424551323453545,2.3196371931751778e-05,3.184548735520072e-08,2.2724025807085277e-05,2.367086021571383e-05,0.03371305005745333,4.6283466762330003e-05,0.03302655354014544,0.0344026599376515,0.025822199519019946,0.00034012583097561795,0.025424577309030364,0.02611396451951336,0.15384615384615385,3.071253071252834e-05,False,True,False
0,0.12400434258586328,0.003870204019917771,0.10971626111953531,0.13002344579608147,0.008062733998386903,0.009758400307928315,1.924819171898253e-05,0.02790095571028369,0.006452227333549091,0.02205958327872391,1.0072253858956284e-07,0.15509903231547234,-0.8215212033860274,0.012469063004230202,-0.8571830544287753,-0.8099271080408241,0.15532504239683437,28.676098365055953,-71.23,43.5,35.66863636363636,0.01884155434516542,35.63,35.71,2.7035737527961945e-05,1.855692373549135e-08,2.7035113391075092e-05,2.7586850399056214e-05,-0.025792595729073955,0.00034342685159495485,-0.026113272862814743,-0.025425219664061714,2.319797855122343e-05,1.5922743677600444e-08,2.3197443011399553e-05,2.367086021571383e-05,0.03371538507962104,2.3141733381165002e-05,0.03371460673889847,0.0344026599376515,0.025792620335006722,0.0003434265244468996,0.025425244619954178,0.0261132971611502,0.1492368569813454,-0.000458805761558075,False,True,False
0,0.12152298790104639,0.0027262914992004206,0.10255769399184783,0.1254714648288698,0.005108229553078876,0.006324092289812799,4.2330920374585006e-05,0.022054931193751952,0.004276235059687333,0.014361403476072843,3.6566980388119674e-08,0.09891612129215946,-0.8263515011955471,0.0093584740205815,-0.863390894307501,-0.8206057846300014,-1.971877828054299,62.75204756731944,-306.06,257.19,35.601891891891896,0.025919929626500797,35.55,35.65,2.412226654011592e-05,4.536079641074042e-06,-5.517370079811242e-06,4.6345908670414436e-05,-0.02472357141468173,0.016318052400423964,-0.04468135246063215,0.0495411669914345,2.069807865332859e-05,3.892177090099507e-06,-4.7341720431427655e-06,3.976704516239923e-05,0.030082090586658207,0.005656796737742609,-0.006880531987530299,0.05779646869525452,0.02927212969069262,0.004516540993111932,0.002705907546613584,0.049541167012771815,0.14479638009049775,-0.0007149877149877157,False,True,False
0,0.11685061918632442,0.019478314857787223,0.07909463560867042,0.14332516137136267,0.15811284531478348,0.16667095535287968,0.00491401719439302,0.9070826970221753,0.21413475996358644,0.4477626535123097,3.8088834308780406e-08,2.532129364287771,-0.9927434370775003,0.14316566076428805,-1.6741123859532616,-0.826792417151058,1.4702091577162235,189.77906926061303,-668.24,464.19,35.532545454545456,0.016391783779672955,35.5,35.57,3.093343148249426e-05,7.309736883005167e-06,-7.72431811173574e-06,4.800111969435781e-05,0.008052318813831899,0.015598571818247399,-0.04193649141230992,0.05300215154405296,2.6542389653859635e-05,6.272109989663139e-06,-6.627840860399872e-06,4.1187296775342064e-05,0.038576071882178355,0.009115734075548498,-0.00963274478254242,0.05986062829151361,0.014178520717006541,0.010342752321070636,5.431418461266541e-05,0.05300215697380792,0.14019219898247595,-0.0002434461150057311,False,True,False
0,0.7552552291872522,0.017432559787733986,0.7260443128775543,0.8068857576878146,0.2161849646170803,0.27168853630616707,0.014071858534762066,0.9521734022309911,0.09916196556787159,0.3003710330346926,7.878269148164918e-08,1.8402039232046548,0.8881905780301265,0.22559910218794993,0.23166902386469895,1.0378255680948487,0.6023911814584512,159.43325015600863,-659.0,450.12,34.07818181818182,0.014663304894374547,34.05,34.11,1.066400284882974e-05,4.679613259057591e-06,-1.82073212633771e-05,3.531116851079195e-05,0.009973343950309662,0.0033297783527133887,-0.017210018396731974,0.017900744957917693,9.150233430897884e-06,4.0153359197011805e-06,-1.5622767742371126e-05,3.02987010761137e-05,0.013298729585853247,0.005835792823837225,-0.022705755558849988,0.04403540472019392,0.010176196181841797,0.0026449293795095907,1.975061258642378e-05,0.017900749224425635,0.1582815149802148,0.0002233392692108494,False,False,True
0,0.7110009117445191,0.021535541520722123,0.671121921448427,0.750011904250039,0.054815130409589304,0.027244761502829267,0.009033359210700464,0.10316448913412035,0.046237106650531955,0.1151527281904725,7.92880943123464e-08,0.6551867059369538,0.9148563946536833,0.0552962562971415,0.8075981994693816,0.9974698342949622,1.2706447963800913,113.50687565806447,-762.88,309.9,34.06621621621622,0.014145609923164288,34.03,34.09,9.113022684991398e-06,1.7315304910355862e-06,4.413896063848994e-06,1.6000373231452603e-05,0.010070314459167498,0.0011984470497923107,0.006887215393612013,0.013773762446615852,7.819416968543837e-06,1.4857374299587282e-06,3.7873376345142126e-06,1.372909892511402e-05,0.011364552890263563,0.0021593351104992374,0.00550442559002424,0.01995354276383787,0.010070321897772171,0.0011984468710078472,0.006887219230702897,0.013773769372901151,0.1809954751131222,-0.0002425412425412711,False,False,True
0,0.6355027162992303,0.021572913450951248,0.5928850487505484,0.6792659672855463,0.03781609127281818,0.022302132595083728,0.0025911240147817034,0.08794638230967892,0.02509514850030555,0.07457198801187842,1.0464644251140243e-07,0.44574305215536003,0.7029568652166699,0.05413458605255363,0.6032001288610477,0.8052495219524507,1.2101978518937255,68.57915374769817,-303.7,233.47,34.01436363636363,0.02320737278954969,33.97,34.05,9.565935198262566e-06,2.901414158570156e-06,-3.86215905586787e-06,2.3172954335207218e-05,0.009835587839248663,0.001915257268132174,-0.004797658854242414,0.016529316944668835,8.20803794689069e-06,2.4895545516046556e-06,-3.313920430199936e-06,1.9883522581199616e-05,0.011929365290018633,0.003618258815040052,-0.00481637239127121,0.02889823434762726,0.009855747466693215,0.0018085809446161416,9.87530629321189e-06,0.016529326153686956,0.14019219898247595,-0.000553253837657486,False,False,True
0,0.6094443146985417,0.02037680537410826,0.5869399238499572,0.6680828842828317,0.06703060453742547,0.06313462681222645,0.008633470490998406,0.25556499265704413,0.05540025625462631,0.16929215301975095,7.177869099095346e-08,1.1418441930447207,0.5942879008105513,0.010499077240139574,0.5778541548821987,0.6085499107236758,-1.3582522624434386,100.69898643700165,-731.27,306.62,33.954684684684686,0.015714487804096917,33.93,33.99,9.51995993522182e-06,2.355044803241851e-06,-5.517370079811242e-06,2.9242061422999583e-05,0.009591349513064173,0.0015525999364285848,-0.0034382609719406355,0.015841263745915803,8.16858893371681e-06,2.020743054494843e-06,-4.7341720431427655e-06,2.5091111828656657e-05,0.011872031041380054,0.002936899440562254,-0.006880531987530299,0.03646681953391059,0.009608441332352224,0.0014429839670027458,0.0013536085247674067,0.01584127335492036,0.0995475113122172,-0.0003680238680238492,False,False,True
0,0.6080567060015056,0.017654341344811964,0.5791634104877522,0.6479586877395181,0.052391079577722946,0.0373719489566719,0.010311724673684268,0.15496744525775502,0.03629276125071049,0.1307463999635821,8.35347412353471e-08,0.8087986284746922,0.6046875218988658,0.03487792011394383,0.5653643489202272,0.659670742595071,-0.6902658371040731,59.07751962895336,-240.46,278.76,33.894636363636366,0.022974947374020838,33.84,33.95,1.0461158360601385e-05,4.154443561196826e-06,-7.72431811173574e-06,2.7035113391075092e-05,0.008830494056116104,0.00238401928354752,-0.004812362347622182,0.01653332698831786,8.976182988135283e-06,3.5647147604253784e-06,-6.627840860399872e-06,2.3197443011399553e-05,0.013045768851017573,0.005180870849646174,-0.00963274478254242,0.03371460673889847,0.008856952646716426,0.0022836928927696377,1.975061258642378e-06,0.01653334137391645,0.14932126696832582,-0.0006006356648558397,False,False,True
0,0.5978771884891001,0.009686956488984093,0.5835329351831969,0.6177737574512818,0.020266961955288768,0.009666777299501479,0.0046043951708880345,0.0395408211745834,0.017133385383749884,0.04371827515819741,8.184000588329354e-08,0.2339558701087345,0.6059483475765208,0.028316300859669116,0.5667525402653119,0.6588721483939546,1.5124250989259476,65.28260655320278,-464.57,299.26,33.86144144144144,0.02396386851630897,33.81,33.89,9.301512024822052e-06,2.447474793581277e-06,-5.517370079811242e-06,2.427642835116947e-05,0.009064148229389217,0.0013404639278073597,-6.01506547354178e-06,0.013775767468440368,7.981149995357084e-06,2.1000524845100646e-06,-4.7341720431427655e-06,2.083035698982817e-05,0.011599611788480096,0.0030521658620525625,-0.006880531987530299,0.03027434074513332,0.00906418762379414,0.001340257201182885,8.8877756638907e-06,0.013775776753298755,0.13566986998304126,-0.00026404001404001205,False,False,True
0,0.5746441020876903,0.020406789844025393,0.5527239792862826,0.6777271817299066,0.07747219353752549,0.05485671298999003,0.009294506282419613,0.3728347250666522,0.08780656541928208,0.22522241947591032,5.4619112344056475e-08,1.2743714586680355,0.4782357569212708,0.03485063912071114,0.4370519047801451,0.5649193001582345,-1.6242703619909504,93.68687420879503,-323.72,358.01,33.79690909090909,0.021577488037110983,33.75,33.84,1.3987531771340471e-05,7.379276110594085e-06,-2.5379902367131716e-05,4.579417166243331e-05,0.00469477138673692,0.006930210458158583,-0.028184784205763723,0.019288881486370837,1.2001982993085128e-05,6.3317780312102926e-06,-2.177719139845672e-05,3.929362795808496e-05,0.017443393933545426,0.009202454174597948,-0.03165044714263938,0.05710841549650149,0.00753512194789382,0.003640292195314042,6.912714405248324e-06,0.028184797745127194,0.07692307692307693,-0.0005337781484570551,False,False,True
0,0.6689234938089543,0.01752780848706157,0.6342484732659182,0.7212731024260296,0.20681649069842217,0.1018429962762259,0.03178141078666181,0.4331891320494448,0.13055654775227446,0.3085004151807441,7.049427175331857e-08,2.3732785820433087,0.6350543560593496,0.08377970139501542,0.49604375209655016,0.7522413841535917,-0.6522611644997178,96.15636049685892,-545.31,309.57,33.75306306306307,0.018329945335078326,33.71,33.79,1.0353952800622048e-05,4.6770289460923825e-06,-1.1034740159622484e-05,3.8621590558678696e-05,0.010349666815187342,0.004163262350302641,-0.015111105088847979,0.020000326606409862,8.884195400284188e-06,4.01311845340589e-06,-9.468344086285531e-06,3.313920430199936e-05,0.012912076299311098,0.005832570011561506,-0.013761063975060599,0.0481637239127121,0.010717190145906415,0.0030954252905222735,4.937653146605945e-06,0.020000391351100738,0.07687959299039004,-0.0004408564408564858,False,False,True
0,0.7117698940420686,0.02618482421200275,0.645653373902191,0.7551134931657595,0.09423877427133702,0.03545052276053755,0.017341068364150076,0.170124988882209,0.07579224733505162,0.19195521363481918,8.155662567510547e-08,0.8727595718223627,0.8780352956371827,0.06826430392705164,0.7536462540904106,0.9455219263001119,1.280565610859727,105.83531200045373,-526.63,314.1,33.66490909090909,0.026535261447428453,33.63,33.73,1.0933005847064881e-05,5.753115431172684e-06,-2.3172954335207218e-05,3.531116851079195e-05,0.009583721102149993,0.0048368026979152936,-0.01927016794934204,0.017916116791905634,9.381051094992287e-06,4.936453027664723e-06,-1.9883522581199616e-05,3.02987010761137e-05,0.013634194437281479,0.007174522313988421,-0.02889823434762726,0.04403540472019392,0.010307017276042604,0.002998622585639979,3.357604139692043e-05,0.019270168621322192,0.09502262443438915,-0.0007245677704393158,False,False,True
0,0.748753860010331,0.026141880451565572,0.7161808835764104,0.8220393207822455,0.09595600307016854,0.06569486714166724,0.018296586765323926,0.2909640476305365,0.07207142283109359,0.1861724848622721,8.18977214933625e-08,1.3158742218321855,0.9884061071215742,0.02377321261697714,0.9458508926932766,1.021195419498416,0.03308648954211418,91.22925276363983,-649.86,575.34,33.59594594594595,0.01879934130269505,33.57,33.65,9.609835646929152e-06,4.9720846175391346e-06,-2.04142692953016e-05,7.007060001360278e-05,0.00939142481732667,0.0028823367007961235,-0.023340341508949317,0.027607007207358956,8.24570666835624e-06,4.2662905790251534e-06,-1.7516436559628233e-05,6.012398494791312e-05,0.01198411210543032,0.006200524300674746,-0.02545796835386211,0.0873827562416348,0.009548514382585613,0.0023085562563615845,0.0027946935908096256,0.02760716160219521,0.17637083097795364,-0.00042997542997540253,False,False,True
0,0.8650512462881877,0.06584218158251587,0.7301879579571245,0.9971515620874862,0.23594796986157515,0.13458076551936637,0.012280951599160877,0.5449208223523526,0.1848052716639905,0.4263605048653979,4.894353899942416e-08,2.0074714364864255,1.2019942134105783,0.116088756660546,0.9942092426628005,1.4348829713079736,0.026668552036199403,76.44389806057012,-579.93,332.32,33.546727272727274,0.030593789946972032,33.49,33.59,9.397004968511093e-06,3.962356839319087e-06,2.206948031924497e-06,3.917332756665982e-05,0.010198306336511634,0.001984271516582391,-0.008217206289154252,0.013779109171481225,8.06308758841148e-06,3.399895004741409e-06,1.8936688172571063e-06,3.3612621506313634e-05,0.011718697919033504,0.004941325773796408,0.00275221279501212,0.04885177711146513,0.0103047503320015,0.0013238637864894083,0.000646340845782538,0.013779123152925602,0.0904977375565611,-0.0007977819353966137,False,False,True
0,0.956968491062288,0.03490983255713816,0.8966577389378477,1.052853806652702,0.2609541010077625,0.11929682491394392,0.09634842747514949,0.5417837564966645,0.20192312529806825,0.36177924659482413,3.34744427732403e-08,2.0550928507422785,1.4562186888988404,0.03998388062897572,1.3961912318814607,1.523473079419794,-0.20372737556561127,33.874242089781134,-252.49,100.4,33.4745045045045,0.022186758489068575,33.43,33.5,8.349703272365928e-06,6.852988319506038e-07,6.069107087792367e-06,1.1586477167603609e-05,0.010467900270477178,0.0007372130452493429,0.008264658472334417,0.013085709247862823,7.164451763932569e-06,5.880197493531075e-07,5.2075892474570424e-06,9.941761290599808e-06,0.010412642186558862,0.000854613786286853,0.00756858518628333,0.01444911717381363,0.010467906098203045,0.0007372129456082619,0.008264663076843478,0.013085716538335504,0.12669683257918554,-0.0005124605124605159,False,False,True
0,0.9847346278227564,0.07959736661903322,0.8971086730833259,1.1573411297036003,0.21366246809999204,0.18592173715997193,0.013240660684803361,0.663157294076009,0.1732237994674111,0.38496560683442804,8.662363981670751e-08,2.5691088947551313,1.5877114369482515,0.06563225685132132,1.5221979565347112,1.7195219963881239,-0.12156020350480488,34.937956724395036,-260.26,96.8,33.40531531531531,0.024562344418007115,33.37,33.45,8.284159731133536e-06,4.323440819865429e-07,3.310422047886746e-06,9.931266143660237e-06,0.010037730019794305,0.0005689829664385698,0.0075786102954059,0.011708934509748593,7.108212215737974e-06,3.7097226329775945e-07,2.8405032258856597e-06,8.521509677656977e-06,0.010330904977435324,0.000539162181020419,0.00412831919251818,0.01238495757755454,0.010037735987028564,0.0005689826876881071,0.007578618141230414,0.011708941822374724,0.12662521198417184,-0.0006858546858546995,False,False,True
0,1.0402074846749125,0.0335971473446614,0.981832932845997,1.1204449476698668,0.1456092698906479,0.07924456540614187,0.035194909493520186,0.31739798650954065,0.09738709686943821,0.2638320630811205,6.222186499371674e-08,1.7970186370625099,1.8243095761907004,0.04886981919685797,1.7218252339194444,1.883031916831643,0.052630090497736565,48.70514640337663,-342.26,146.74,33.356,0.02041765740590482,33.33,33.39,8.334099850194516e-06,3.9353141075164887e-07,5.517370079811242e-06,9.931266143660237e-06,0.009796173325862845,0.000640531193855652,0.007577273614189557,0.013771089084183168,7.151063268335446e-06,3.376691024762158e-07,4.7341720431427655e-06,8.521509677656977e-06,0.010393183668494581,0.0004907601666385376,0.006880531987530299,0.01238495757755454,0.0097961795151283,0.0006405308822276945,0.0075772795083158635,0.013771093401958439,0.0904977375565611,-0.00047751504632234225,False,False,True
0,1.0086063340100544,0.055158622236162295,0.947258130264411,1.1542469910427953,0.11935818400120714,0.12926117183476807,0.009169435183260601,0.5015586937280166,0.09647387225403875,0.28427712045939385,7.521138378763226e-08,2.0666301003335033,1.7545352249704647,0.07027901241635996,1.604789066396024,1.8137000239373333,0.3248728094968905,55.64683089830995,-276.13,222.31,33.303693693693695,0.024677112249204363,33.27,33.34,8.620578681261637e-06,1.0001128261695456e-06,3.86215905586787e-06,1.4896899215490354e-05,0.009181631178039608,0.0016244430885217816,-0.004798995535458756,0.015836585361658603,7.396876047498628e-06,8.581454774921215e-07,3.313920430199936e-06,1.2782264516485466e-05,0.010750442060154809,0.001247208034273153,0.00481637239127121,0.018577436366331808,0.009201795394773348,0.0015059346122962669,0.0013881982091186935,0.015836590184268168,0.10853589598643301,-0.0006422428922428748,False,False,True
0,1.0135719514103965,0.029317569021001532,0.9486269446359823,1.1018925908824309,0.15784729609800996,0.12004680756669196,0.03043825687352927,0.5360787979265902,0.13449667808574484,0.31666306166626745,5.12936413343823e-08,1.6290184575612363,1.7312694829886461,0.06360784610906886,1.60253741488443,1.7965756336047627,-0.14947963800904937,38.05844499874212,-151.26,139.7,33.20590909090909,0.044066160737030985,33.15,33.27,9.062467597156022e-06,5.251899508426342e-07,7.72431811173574e-06,1.1034740159622484e-05,0.0096452791852892,0.0007262363635306394,0.007579946976622242,0.013083035885430139,7.776038242809159e-06,4.5063853731990063e-07,6.627840860399872e-06,9.468344086285531e-06,0.011301507291735288,0.0006549472310231249,0.00963274478254242,0.013761063975060599,0.009645286652312906,0.000726235695178335,0.007579957052369356,0.013083040430282527,0.08597285067873305,-0.0013219574870951393,False,False,True
0,1.033652436669732,0.01828974311583806,1.0040205054864844,1.0734981143015816,0.12437050306864776,0.07306499503190499,0.03323965435708912,0.2781306768941905,0.08639664924831836,0.16701462041812976,1.1727122117832778e-07,1.0202104879646356,1.8255689310323449,0.024525034809587773,1.7642166987462033,1.8498594073818497,-0.2905992085924252,24.09430833642837,-93.95,100.56,33.07711711711712,0.040348197828119735,33.0,33.16,8.633281453697864e-06,5.268358624573225e-07,7.172581103754615e-06,1.1034740159622484e-05,0.009218708776014512,0.0006047646970275034,0.007577273614189557,0.011020881310995562,7.407775644456612e-06,4.520508095871271e-07,6.154423656085595e-06,9.468344086285531e-06,0.010766283272691479,0.0006569997936298911,0.00894469158378939,0.013761063975060599,0.00921871586030785,0.0006047640960531711,0.0075772795083158635,0.011020889080161621,0.13114754098360654,-0.0011825201825201885,False,False,True
0,1.0376128850833448,0.026431650788104503,0.9996650752500427,1.117519075400891,0.10920068199282673,0.07355844611281843,0.018889520681578686,0.3522835868035664,0.0984752798897184,0.23607884168590573,7.328938300688037e-08,1.2045191007399207,1.8528260215651038,0.021896508335029766,1.8334099474976613,1.9119273528705734,-0.4184332579185522,20.974143380037862,-205.11,85.1,32.96909090909091,0.026004426389108163,32.91,33.0,8.495751303890344e-06,8.203015806971471e-07,3.310422047886746e-06,1.2689951183565858e-05,0.009418095549418892,0.0012117231881405626,0.006890557096652869,0.014455800579895341,7.289768082721643e-06,7.03858677976358e-07,2.8405032258856597e-06,1.088859569922836e-05,0.010594773915640548,0.0010229713040386594,0.00412831919251818,0.01582522357131969,0.009418102368214078,0.0012117223806578864,0.006890565725917406,0.014455802408011118,0.11312217194570137,-0.0007361089195951679,False,False,True
0,1.1021701942505482,0.03259031153795331,1.057100747707161,1.1831581347546574,0.1649425460703469,0.11059514377362781,0.03798007962212227,0.4821468331274408,0.10936180901719648,0.2469399200239639,8.600122214375006e-08,1.697285710308556,1.9931574189418215,0.04163925861647312,1.9137013592128813,2.0457268815227683,0.5470022624434375,48.29675160005218,-170.08,117.15,32.86369369369369,0.03297183172257206,32.81,32.91,8.53007883266745e-06,5.934651696364276e-07,6.620844095773492e-06,1.0483003151641362e-05,0.009688999703151362,0.0007541631441851451,0.007577941954797728,0.011708266169140422,7.319222773035314e-06,5.092219978051345e-07,5.681006451771319e-06,8.994926881971256e-06,0.010637582655381969,0.0007400910259962541,0.00825663838503636,0.01307301077630757,0.009689006304036067,0.0007541625017532397,0.007577948789985875,0.011708272692194925,0.0995475113122172,-0.0009419094419094175,False,False,True
0,1.0929372256402639,0.035785652919641316,1.0592119917900833,1.1835703957821,0.08817447714317989,0.0851599289164829,0.010957523276246963,0.3385969885040039,0.07518097725854166,0.19338624734880375,7.415400116173032e-08,1.127613151504951,2.0419666768909046,0.029037371545438933,2.0132636291843706,2.1211364973062508,-0.28718485019785234,44.798404621852434,-165.48,172.07,32.77309090909091,0.02441030969384616,32.73,32.83,8.55816499257599e-06,5.755564098196971e-07,6.620844095773492e-06,1.1034740159622484e-05,0.00956294252795835,0.0006904597349082146,0.007577941954797728,0.012396987708501622,7.343322065110136e-06,4.938554103141201e-07,5.681006451771319e-06,9.468344086285531e-06,0.01067260798789768,0.000717757596664244,0.00825663838503636,0.013761063975060599,0.009562949234592175,0.0006904593511947051,0.007577948789985875,0.012396994615265213,0.08592425098925946,-0.0006642472330545807,False,False,True
0,1.1281881485436933,0.015747324453031827,1.0936841396713501,1.1672773398013856,0.09970068805634187,0.04753475842513365,0.02844524536315669,0.2104571898531682,0.06802758176124854,0.17453398525093522,7.182428840568633e-08,1.1843309146218237,2.1374621687324766,0.01654678610240427,2.1140720479797426,2.1803880303070025,0.37914027149321283,40.16911542054481,-167.49,160.26,32.67756756756757,0.03297977937563961,32.63,32.75,8.607471806637652e-06,4.667925390520652e-07,7.172581103754615e-06,1.0483003151641362e-05,0.009389432274096495,0.0005921809122852275,0.006889888756044698,0.011708266169140422,7.385629711197045e-06,4.005307159681264e-07,6.154423656085595e-06,8.994926881971256e-06,0.01073409690498081,0.0005821217264798926,0.00894469158378939,0.01307301077630757,0.009389439160409642,0.0005921806559924649,0.006889896273822699,0.011708272692194925,0.09502262443438915,-0.0008653913653913646,False,False,True
0,1.1698921383799041,0.0422295153954418,1.1120772360483628,1.2581547429971178,0.14780478367716832,0.10353320093795172,0.03453621960566812,0.39017960202990604,0.11090197548756425,0.31079216233572377,6.922421658117628e-08,2.282548841820924,2.2159985335029395,0.04730205075070585,2.15268117360421,2.3172632962947035,-0.3907292255511591,33.56827343189844,-143.18,121.1,32.61472727272727,0.02097220051231124,32.57,32.65,8.88826499749931e-06,4.4006458843119864e-07,7.72431811173574e-06,1.1034740159622484e-05,0.009093068926422141,0.0005610264646973935,0.006891893777869211,0.01170692948792408,7.626563934360046e-06,3.7759683356230154e-07,6.627840860399872e-06,9.468344086285531e-06,0.011084264920476778,0.0005487901723974637,0.00963274478254242,0.013761063975060599,0.009093076510806689,0.0005610260818120054,0.006891904859528432,0.01170693456700689,0.10401356698699829,-0.0005381060793904828,False,False,True
0,0.18751515861255139,0.01872119865320271,0.16001775794604353,0.224832042942027,0.03829260256504717,0.020939054529397077,0.008537714059970586,0.11194191571674224,0.023554521958089953,0.06275761101498649,6.194981994056548e-08,0.3107455771267811,-0.6585204787995498,0.04887470082564066,-0.7154039555741456,-0.5513921296556693,-0.3454663651780667,47.56953329586665,-126.1,252.96,34.39872727272727,0.022912241466244584,34.37,34.47,3.4209566905490274e-05,1.1543192567006566e-06,2.7586850399056214e-05,4.303548662252769e-05,-0.003995813942146481,0.007014408788731951,-0.0164765180366233,0.019992306519111807,2.9353473286956808e-05,9.904620996749494e-07,2.367086021571383e-05,3.6926541936513574e-05,0.04266163334485558,0.0014395138362411218,0.0344026599376515,0.05366814950273634,0.006440652505373635,0.004864112992910986,6.122689901791373e-05,0.019992350986177784,0.11758055398530243,-0.0003913170885647857,True,False,False
0,0.21983724526307918,0.006955409343727816,0.20945088321357905,0.23609136454412974,0.02425770394362825,0.019084911707038226,0.003313938216390938,0.07786323176884091,0.01795412645079126,0.06937684531169616,7.180104605319926e-08,0.6007322333980425,-0.5466510443686956,0.006783613128258385,-0.5578084141078349,-0.5363390270819475,0.2342760180995473,24.212798926328286,-98.84,133.41,34.37486486486486,0.022758209901836416,34.34,34.41,3.47856452520588e-05,4.898440026220659e-07,2.9793798430980708e-05,3.8621590558678696e-05,-0.002642359940094322,0.0015244088267674556,-0.00752781640918488,0.009676855262681727,2.9847776544402593e-05,4.203099935601697e-07,2.5564529032970932e-05,3.313920430199936e-05,0.04338004183178888,0.0006108684536630371,0.037154872732663616,0.0481637239127121,0.0028485474632519645,0.0010920106363899052,6.023936838859253e-05,0.009676974221551338,0.14027149321266968,-0.0004685854685854382,True,False,False
0,0.19899313722517392,0.006626792726819875,0.18368972283545387,0.21228253527300964,0.008762045664777307,0.011554855250153517,0.0001342606868674649,0.044074910846247276,0.007514369436944711,0.031839143152177,6.06707500211412e-08,0.24257688005441375,-0.5942992688407476,0.02198963449283768,-0.6219569609367254,-0.5513993830086155,0.17009044657998842,24.91640617794617,-83.38,130.5,34.33763636363636,0.01924860403503906,34.31,34.39,3.469334774818258e-05,6.986143183106608e-07,3.0345535438961837e-05,4.027680158262207e-05,-0.004271329559522809,0.0020794681238946256,-0.01096808240295003,0.0062332475658757195,2.976858079422054e-05,5.994450846767779e-07,2.6037946237285214e-05,3.455945591494219e-05,0.04326494062983882,0.0008712190943420686,0.03784292593141665,0.050227883508971186,0.004464495675816774,0.0016238553986152255,5.5301715241986593e-05,0.010968172057650256,0.13566986998304126,-0.00042305524874330713,True,False,False
0,0.20164763787759205,0.014468395384915398,0.17567473704030032,0.24305055573697398,0.06563162023619563,0.04728782850309433,0.00887066869744248,0.1719543265827557,0.05015117532144652,0.15827084338662203,4.757260141374786e-08,0.9812188544396873,-0.643075619083997,0.0288992660698953,-0.6812284415847247,-0.5838213681738551,-0.18074660633484146,70.02958464566862,-557.03,274.22,34.285315315315316,0.02600069299145717,34.23,34.33,3.363348855892175e-05,1.8204162628417406e-06,2.0966006303282724e-05,4.4138960638489935e-05,-0.00873738510955151,0.006909918050582315,-0.028182779183939206,0.024804668866733985,2.8859170029511015e-05,1.5620057479853954e-06,1.7989853763942512e-05,3.7873376345142124e-05,0.04194322485792226,0.002270181652837664,0.02614602155261514,0.055044255900242395,0.009616364776652161,0.005621218405071361,6.023936838859253e-05,0.028182794946604233,0.13574660633484165,-0.0006553176553176443,True,False,False
0,0.19840964294031602,0.006508508295884588,0.19021154780940502,0.2139815444122032,0.011956889354351727,0.00888283779366661,0.0009637718328554933,0.034951092641426686,0.010145198995453597,0.02815351366387841,5.6280268667663336e-08,0.19654382141791787,-0.5992536848575739,0.016222356064815372,-0.6190519548319008,-0.5757161728306155,0.0920814479638011,41.30594127587534,-245.67,125.76,34.23500000000001,0.023993500649020165,34.18,34.27,3.358979897684179e-05,8.227046383561803e-07,2.869032441501846e-05,4.193201260656545e-05,-0.010965049180449412,0.002602950895269223,-0.017162566213551812,0.002105596713965711,2.882168224183907e-05,7.059206183977706e-07,2.461769462434238e-05,3.5979707527885024e-05,0.04188874100734227,0.0010259680787432165,0.03577876633515756,0.05229204310523028,0.010969911417350407,0.0025827392360066115,0.0020225727928591566,0.01716261801226589,0.14932126696832582,-0.0004980276356423318,True,False,False
0,0.2083688045376047,0.012385078120422234,0.19000297498445368,0.24376684045319874,0.02279761277171472,0.030097747231996475,0.0006633342281618477,0.12255395582788683,0.01632210344592395,0.07244033813439259,8.829876296800876e-08,0.6387398425774364,-0.5800590898641639,0.018040945706779145,-0.6195423748845906,-0.5588145440321671,-0.31679479932165044,27.800618060597046,-143.47,103.2,34.19225225225225,0.023767230484035107,34.16,34.23,3.441116311994491e-05,9.22369284881436e-07,2.869032441501846e-05,4.138027559858432e-05,-0.005912622940463532,0.003730455024151191,-0.019918789052212962,0.0014175435152126812,2.952645265007164e-05,7.914377355105152e-07,2.461769462434238e-05,3.550629032357074e-05,0.0429130373982461,0.001150256603624328,0.03577876633515756,0.05160398990647725,0.005926719236704862,0.003708271100289798,6.122689901791373e-05,0.01991882492699212,0.1582815149802148,-0.00042681642681642834,True,False,False
0,0.18425990678316076,0.005889532478478944,0.17266445436531386,0.20292613955226568,0.019018044204217065,0.02492074863013153,0.00012874402402605908,0.08048867047464067,0.015937832661321483,0.05879958880336674,6.722635847999925e-08,0.47259479865885123,-0.6492895097652189,0.017472634335017286,-0.6711916308148472,-0.62040612082134,0.12496606334841609,22.646721509566046,-108.56,116.77,34.158545454545454,0.008865598251686263,34.15,34.18,3.368279537298341e-05,5.926787124878432e-07,3.0345535438961837e-05,3.64146425267542e-05,-0.010534514110697099,0.0018139589877846384,-0.01785061941230484,-0.006837758188607336,2.8901477675597922e-05,5.08547179297023e-07,2.6037946237285214e-05,3.124553548474225e-05,0.04200471377500539,0.0007391102609778881,0.03784292593141665,0.045411511117699976,0.010534610903913418,0.0018139399709636626,0.0068379164908453785,0.017850669214440052,0.07239819004524888,-0.00019764217929354915,True,False,False
0,0.1675799736773391,0.0066393130967034595,0.15546143892597636,0.18018480881600837,0.002848546315820706,0.005446916388089308,2.7386128525350463e-05,0.02057416073987621,0.0004547959399321053,0.00316332366731453,1.3453941470099873e-07,0.03140075024551592,-0.6839482858831895,0.016638185588782127,-0.7148411353881543,-0.6646354733457424,0.001390616167326097,18.073694532052475,-54.29,94.72,34.12873873873874,0.01690170067382203,34.11,34.15,3.310110332063028e-05,2.0240811035446878e-07,3.144900945492408e-05,3.531116851079195e-05,-0.013258377875796295,0.00049905933981528,-0.015787128156653923,-0.01165546726109489,2.8402357585385896e-05,1.7367600930954102e-07,2.6984780645913764e-05,3.02987010761137e-05,0.04127930461897416,0.00025241654224454884,0.03921903232892271,0.04403540472019392,0.013258449723742625,0.0004990565999664675,0.011655554417225048,0.015787182543227824,0.14019219898247595,-0.0002885222885222903,True,False,False
0,0.14658346195242053,0.00530706053379765,0.13789591752402708,0.15595649505151876,0.001866326093755601,0.004769614850945767,1.6771735646967126e-06,0.023617177915609418,0.003144713893278151,0.016799233090765968,1.1141421713488885e-07,0.14090811501208228,-0.7466085745134012,0.018804938047610877,-0.7932737447232824,-0.7154004845233057,0.1594343891402717,14.466223549653932,-32.42,35.3,34.094,0.015515603273933882,34.07,34.11,3.310172393132003e-05,1.3641931001499313e-07,3.255248347088633e-05,3.365595748684858e-05,-0.013225163522458049,0.0003274656989294871,-0.01440901673732335,-0.01234418880045609,2.8402890099561057e-05,1.1705440713157674e-07,2.7931615054542318e-05,2.8878449463170872e-05,0.04128007856229152,0.00017012406503409425,0.04059513872642877,0.04197124512393483,0.013225235493831039,0.00032746387840783855,0.012344268460691516,0.014409082763026089,0.13574660633484165,-0.00012118206613620019,True,False,False
0,0.22536167426525508,0.07772379245206293,0.13037267425410368,0.3653906151796266,0.0914721215538743,0.12461140220448884,0.0030084163262060004,0.4387977082792397,0.0697759019562932,0.2295117419828098,6.994452611541746e-08,1.6901413014668634,-0.5969190840240927,0.16770266262684627,-0.8159449899138481,-0.4034971433036429,-0.22087054833239106,82.15627571938019,-640.66,408.55,34.071801801801804,0.02636106627027555,34.03,34.13,1.8091855939308654e-05,9.679745378593972e-06,-1.2689951183565858e-05,5.351848977416905e-05,0.003857578453239812,0.010747289331497498,-0.01440968507793152,0.039242424250208706,1.5523692874952413e-05,8.305692620431893e-06,-1.088859569922836e-05,4.592146881848483e-05,0.0225617625251743,0.012071294248009363,-0.01582522357131969,0.0667411602790439,0.010713437182876998,0.003936369064938049,3.6538633284884e-05,0.03924243249967945,0.1582815149802148,-0.0006960336960337318,True,False,False
0,0.23727183081837727,0.0067945350042130865,0.22912525997667124,0.2617873811616595,0.013189589863227926,0.013464859308843525,0.0006716905651064794,0.08513576106457772,0.017262481953340934,0.06617990260634603,6.902561558441711e-08,0.49826705100792273,-0.482460239473317,0.013568299164283544,-0.49882877792496033,-0.44617039595103075,0.04033936651583701,51.20274434559999,-484.97,218.0,34.03036363636364,0.01602333577654234,34.0,34.07,1.3844604424250337e-05,9.508252519685197e-07,8.827792127697988e-06,2.5379902367131716e-05,0.006215476025157903,0.007088206779980484,-0.016495899914260266,0.010336838155891561,1.187934437341548e-05,8.158543401419865e-07,7.574675269028425e-06,2.177719139845672e-05,0.017265153908076595,0.0011857431105916992,0.01100885118004848,0.03165044714263938,0.009366673105626347,0.0010416230666521686,4.048875580216875e-05,0.016495910743959934,0.13122171945701358,0.00018970763924890612,True,False,False
0,0.2517102144757226,0.009191595394012793,0.22371866359706402,0.27148386969194055,0.05117417730112694,0.03014854313826161,0.00581787125225663,0.11247431388251206,0.0315236409654377,0.07139955583752729,3.6083225185556955e-08,0.4809106592552912,-0.47722451467601373,0.019670981965629986,-0.5043885719735978,-0.44443265561380535,-1.5869287330316753,65.79213555738622,-471.2,210.82,34.10027027027027,0.018657655482619037,34.05,34.13,1.5313822655910482e-05,8.903119247149623e-07,3.86215905586787e-06,1.9310795279339348e-05,-0.010134904493858805,0.003368997473373677,-0.012366912381133913,0.017902749979742203,1.31400051188406e-05,7.639309603473977e-07,3.313920430199936e-06,1.656960215099968e-05,0.01909736796900944,0.0011102789169963637,0.00481637239127121,0.02408186195635605,0.010593348023285811,0.0013553810795312155,2.9625918879635672e-05,0.017902755884281883,0.14027149321266968,0.0003395928395928433,True,False,False
0,0.25111002299777935,0.021269633214165914,0.2206617880366361,0.2974341862816226,0.05598491256569764,0.062272527966423415,0.001672384155056696,0.21195489758484168,0.04322429423406702,0.1072295889480901,4.5110565380368506e-08,0.5164941314913503,-0.4829248974888598,0.0269016304075573,-0.5278770137964036,-0.4411621843915081,1.875161107970605,45.7645854255634,-313.46,274.9,34.08765765765766,0.013413355281886561,34.07,34.13,1.555836019342027e-05,4.2841939844859326e-07,1.1034740159622484e-05,1.7103847247414853e-05,0.002340345717168442,0.0005251472630806415,0.001393483253318514,0.006899245524559096,1.334983022696846e-05,3.6760469381904503e-07,9.468344086285531e-06,1.4675933333742575e-05,0.019402322743593915,0.0005342678363900658,0.013761063975060599,0.02132964916134393,0.0023404385902858434,0.000525133803685141,0.001393611448245193,0.006899275554839636,0.13566986998304126,-0.00021516321516322747,True,False,False
