,EDA_mean,EDA_std,EDA_min,EDA_max,EDA_phasic_mean,EDA_phasic_std,EDA_phasic_min,EDA_phasic_max,EDA_smna_mean,EDA_smna_std,EDA_smna_min,EDA_smna_max,EDA_tonic_mean,EDA_tonic_std,EDA_tonic_min,EDA_tonic_max,BVP_mean,BVP_std,BVP_min,BVP_max,TEMP_mean,TEMP_std,TEMP_min,TEMP_max,ACC_x_mean,ACC_x_std,ACC_x_min,ACC_x_max,ACC_y_mean,ACC_y_std,ACC_y_min,ACC_y_max,ACC_z_mean,ACC_z_std,ACC_z_min,ACC_z_max,Resp_mean,Resp_std,Resp_min,Resp_max,net_acc_mean,net_acc_std,net_acc_min,net_acc_max,BVP_peak_freq,TEMP_slope,0,1,2
0,6.393230899775997,0.2840031358290775,5.949066829075888,7.22045867990251,1.1564472025219081,0.5487439265949171,0.16619301249875856,2.1594328510705396,0.7836277109501708,1.3200299820891919,3.5460686831356725e-08,4.878036648235327,1.9805412576191732,0.43129765100332557,1.4783146532390528,2.8013275591836213,-0.072516968325792,44.82078994464218,-222.82,192.64,32.63727272727272,0.013874211501461581,32.61,32.66,-2.9292616510834957e-05,6.497633866042543e-06,-4.855285670233894e-05,-6.069107087792367e-06,0.01353255218427547,0.014906611282945657,-0.017940845394407972,0.04332796964380392,-2.5134490554391342e-05,5.575286078371715e-06,-4.166071397965634e-05,-5.2075892474570424e-06,-0.03652986513243886,0.008102986932516114,-0.06054868149026664,-0.00756858518628333,0.016972476211567136,0.01082380734478088,5.036406209538064e-05,0.04332797477328585,0.19457013574660637,-4.291864842322678e-05,False,True,False
0,5.95304174701709,0.12759039827817617,5.685740872339434,6.111773751892632,0.02327783930567884,0.03394265947872852,0.00040566599137833374,0.15451364875978282,0.007874670538927415,0.01862603379428754,1.061698224336105e-07,0.10156184161269888,2.8462372915466667,0.06480323574584093,2.70432771664958,2.9208174184960463,-0.01226116449971716,13.212322571558794,-33.58,19.47,32.5881981981982,0.027967455053661754,32.55,32.65,-2.5537184862619546e-05,3.704948340770805e-07,-2.6483376383093966e-05,-2.482816535915059e-05,0.02983944771970712,0.00044589469084581205,0.028866822339043207,0.030932318616518642,-2.1912147434075727e-05,3.1790259856495717e-07,-2.2724025807085277e-05,-2.1303774194142445e-05,-0.031846589004727345,0.00046203200441636807,-0.03302655354014544,-0.03096239394388635,0.029839466706721707,0.00044589402138294485,0.02886684256189769,0.030932335917004648,0.10853589598643301,-0.0007830817830818158,False,True,False
0,5.432799061190376,0.12686714485489514,5.149789153696277,5.679596501899365,0.10322518745350362,0.13421349546502173,2.210499555047515e-05,0.4263509343583731,0.11081918947669787,0.33852449507858984,5.820323600858046e-08,2.0392600323916916,2.4502709306083736,0.19604940320948008,2.0051583202036327,2.7008302315685055,0.4178337104072398,36.28331351641018,-125.72,178.35,32.55581818181818,0.0201545322688433,32.53,32.59,-2.3506243432788577e-05,4.788504402625337e-06,-4.248374961454656e-05,-5.517370079811242e-06,0.030742448094476627,0.0067787782552683725,-0.0048531311247206315,0.05503356245051165,-2.016950084715417e-05,4.108769820303676e-06,-3.64531247321993e-05,-4.7341720431427655e-06,-0.029313868293480334,0.005971587411772908,-0.05298009630398331,-0.006880531987530299,0.030761306604365143,0.006692656584891655,0.0006408581083156248,0.05503356367981257,0.0904977375565611,0.00038951378400923825,False,True,False
0,4.854845815492378,0.12262197273388396,4.591183103575589,5.213635025472787,0.1773403749214474,0.12137033391624875,0.023679819610278086,0.44878149320044114,0.12628116587206037,0.32808589617986383,3.332259357335943e-08,1.759321065145489,2.02500749053569,0.10353228094166289,1.8531329241739134,2.171389858985472,-0.3692255511588467,50.93970716862021,-283.57,149.34,32.611981981981984,0.01847946377713865,32.55,32.65,-2.2394911639206717e-05,7.216379617237459e-06,-4.4138960638489935e-05,-5.517370079811242e-06,0.02165082396554125,0.01363206099194856,-0.02412196239284633,0.047460298879971136,-1.9215924082912365e-05,6.192004912202601e-06,-3.7873376345142124e-05,-4.7341720431427655e-06,-0.027927962718199254,0.008999311279163402,-0.055044255900242395,-0.006880531987530299,0.022435076668419873,0.012297172477149731,5.9251837759271344e-05,0.04746030182555277,0.09044657998869417,0.00034047034047032543,False,True,False
0,4.481912531426244,0.17163328637045458,3.9387786690660986,4.789490414451333,0.2824743990572489,0.12395803517685955,0.0706343885509109,0.4660815670366036,0.22847047730362469,0.41548802208990515,2.5027136807409534e-08,3.0880592013243757,1.6929994964229638,0.12715766222566655,1.4097833499070929,1.8643868553643106,-0.2685576923076922,48.5007404387036,-240.18,345.41,32.66918918918919,0.023784453865924152,32.61,32.71,-2.836078013875824e-05,6.4350709482804734e-06,-3.8069853550697574e-05,2.758685039905621e-06,0.02033637886937669,0.007903253556824018,-0.0062365892689165755,0.04746698228605284,-2.433492959733114e-05,5.521604050173098e-06,-3.2665787097685084e-05,2.3670860215713828e-06,-0.03536780243363991,0.008024966761552727,-0.04747567071395907,0.0034402659937651497,0.02041378950909242,0.007700962128648646,4.740147020741708e-05,0.047466983226947375,0.11764705882352942,0.0005015795015795087,False,True,False
0,3.954749682735789,0.1795456714882314,3.6232698915991124,4.263778052810457,0.11067224953593788,0.14571334554270757,0.001099028976087533,0.43442708478455017,0.052590224901726774,0.12810434746959687,4.7370949829428355e-08,0.5643677896099994,1.5444836761818628,0.07395495048285591,1.4070013394678478,1.6381750042137289,-0.04001695873374818,20.33970326485682,-64.06,41.72,32.657,0.013650284803964657,32.63,32.71,-2.9987280865906216e-05,1.1423556104344269e-06,-4.4138960638489935e-05,-2.3172954335207218e-05,0.014450931103540668,0.012485016124311347,-0.008289387074836754,0.026111936181598402,-2.5730546378375262e-05,9.801967089419844e-07,-3.7873376345142124e-05,-1.9883522581199616e-05,-0.03739615835666073,0.001424594363805605,-0.055044255900242395,-0.02889823434762726,0.016743337082846844,0.009180756006508221,4.44388783194535e-05,0.02611196250529824,0.11305822498586772,-2.5652007303361526e-05,False,True,False
0,3.3723018677762995,0.13491282032209628,3.1522004203966087,3.618115800397364,0.0009072232440652773,0.0013106818102760832,1.1810331636212555e-05,0.004285495436864006,0.0006412837850370828,0.0035919692141752313,1.4071479013597066e-07,0.03493158951629954,1.3001467724281748,0.08079471672009458,1.1677832664418761,1.4498181967951054,0.13016402714932113,11.564133803930973,-28.42,20.13,32.766936936936936,0.03370440469711585,32.71,32.81,-3.044227665642459e-05,2.099206895918154e-07,-3.089727244694296e-05,-3.0345535438961837e-05,-0.002422490234549313,0.0003761587847504061,-0.003477693067822743,-0.0014128651309554818,-2.6120954909987377e-05,1.8012216791098732e-07,-2.651136344159949e-05,-2.6037946237285214e-05,-0.03796356874341521,0.00026178523439383166,-0.03853097913016968,-0.03784292593141665,0.002422830827293577,0.0003761039968439493,0.0014134308276089011,0.003477931363298959,0.1085972850678733,0.0010014040014040331,False,True,False
0,2.9519310840716053,0.12196081148450715,2.7310627122959192,3.1489261066918073,0.005978987797355944,0.008029118656085136,7.957317829189585e-07,0.03098490341220755,0.006048264406496567,0.02720916715556722,6.430952204095064e-08,0.26706365676438903,1.0397524032207621,0.07679956095564432,0.8947783336372384,1.165568479881899,-0.117658371040724,20.041423433910676,-157.94,80.39,32.81909090909091,0.019086738493570017,32.77,32.84,-2.995108092646854e-05,1.0009485169994384e-06,-3.64146425267542e-05,-2.482816535915059e-05,0.012569725427487724,0.013219946221310097,-0.0027903082096778845,0.028178100799682006,-2.569948506858994e-05,8.588625408948578e-07,-3.124553548474225e-05,-2.1303774194142445e-05,-0.03735101459475158,0.001248250197007133,-0.045411511117699976,-0.03096239394388635,0.01435089615624271,0.011258952535659767,0.0007287487174671731,0.028178122407776094,0.11312217194570137,-0.00037797263485336174,False,True,False
0,2.608016475496081,0.08694470312812565,2.4618811403346013,2.8348743413241673,0.023599892853831794,0.030848250961792743,5.184392474754843e-05,0.12492134042762237,0.016719854983578863,0.08962236409089042,2.57469880970973e-08,0.8775475759461966,0.8129485841473802,0.03237667595542775,0.7514547257502382,0.8915070092763115,0.1030582249858677,19.334644309187183,-54.59,67.58,32.74603603603604,0.025272308930717535,32.71,32.79,-3.236483054500801e-05,2.314683433758162e-06,-4.303548662252769e-05,-2.372469134318834e-05,0.0172771894480154,0.005223342627615598,-0.0007268169540269659,0.037126134086512254,-2.777059971160605e-05,1.986111035205107e-06,-3.6926541936513574e-05,-2.035693978551389e-05,-0.040361122892728585,0.0028865660951864895,-0.05366814950273634,-0.029586287546380288,0.017279008206032852,0.005217491523286679,6.023936838859253e-05,0.03712614724793921,0.10853589598643301,-0.0007223587223587456,False,True,False
0,2.3784901427986123,0.06093422791855874,2.2795132028675162,2.5575038705986293,0.03449598947159024,0.03977090433392865,3.1566173469049416e-05,0.14882881652366878,0.028304479036673727,0.09636103163704227,3.048394114912867e-08,0.7775967465433418,0.6628666845062449,0.05036964899732521,0.6040163368845124,0.7502686295003616,-0.20179864253393662,26.15643784817934,-85.1,114.32,32.674727272727274,0.018657172215065354,32.65,32.71,-2.5216378502775313e-05,5.8687864440805494e-06,-3.586290551877307e-05,-1.2138214175584734e-05,0.012313938274854885,0.00879375854366375,-0.011036253144983502,0.04056974178331826,-2.1636879964598873e-05,5.0357043861179455e-06,-3.0772118280427976e-05,-1.0415178494914085e-05,-0.0314465218733257,0.007318771855496399,-0.04472345791894695,-0.01513717037256666,0.013375907795883117,0.007072384613064802,3.6538633284884e-05,0.04056975118944382,0.11312217194570137,-0.00028780740707348587,False,True,False
0,2.270280766633342,0.05221397995839364,2.150515497189651,2.4055902025009663,0.020658094718067937,0.03113524420140994,0.0010904513367880487,0.12285963098394594,0.017213606048204502,0.12770550384713122,7.098702026198112e-08,1.3303177557034758,0.6106906394963902,0.03679219888896903,0.5231419688261618,0.650795648981163,0.17046353872244235,38.213894919824405,-117.7,116.69,32.78207207207207,0.0563288577279913,32.66,32.87,-1.8190469567431976e-05,1.0574051587506152e-05,-4.248374961454656e-05,1.2689951183565858e-05,0.006502795450363685,0.011180100484701942,-0.02069305818942009,0.0337139383982903,-1.5608308167126234e-05,9.073050871010925e-06,-3.64531247321993e-05,1.088859569922836e-05,-0.022684740359340566,0.013186554306344571,-0.05298009630398331,0.01582522357131969,0.007804707591736776,0.01031247831327278,3.55511026555628e-05,0.033713938406128865,0.10853589598643301,0.0016855036855037053,False,True,False
0,2.068551811998431,0.036921155073094444,1.9880996206025812,2.1454002865620305,0.019394193645219153,0.018740932557369756,0.0006049536842748155,0.05700289375961155,0.011889908064019633,0.05883575805807567,7.688866476840417e-08,0.5691186264681302,0.48942472858247943,0.019271180011920117,0.4637721384342237,0.52065759914582,0.23746606334841588,28.176672816868248,-161.73,146.34,32.82781818181819,0.012516544514048263,32.79,32.84,-2.677672071991651e-05,6.423528350533141e-06,-4.358722363050881e-05,3.310422047886746e-06,0.024736701125730665,0.011306721158352987,0.005451626681978706,0.03644275927201642,-2.2975729524311192e-05,5.511699939560579e-06,-3.739995914082785e-05,2.8405032258856597e-06,-0.03339237367975395,0.008010572364970502,-0.054356202701489366,0.00412831919251818,0.02473674870929284,0.01130667521825134,0.005451929207415455,0.03644276867010569,0.13574660633484165,-0.00023010166129433575,False,True,False
0,2.0770441283976915,0.033002758611467196,2.0330681069570153,2.154970774480487,0.015067953910653143,0.017311908275843443,0.00034391174997325117,0.05879778470188758,0.012164200359895287,0.05410053722731084,5.0484163627295686e-08,0.5091828998390651,0.49894480370579275,0.006906836347541312,0.4895857565080294,0.5143203343590549,-0.13919163369135118,45.85518056059058,-152.58,185.1,32.84045045045045,0.021036219302014866,32.81,32.87,-2.6626142230356875e-05,6.4562027165982e-06,-3.751811654271645e-05,-3.86215905586787e-06,0.008089884303207364,0.01676198810143287,-0.016550035503522142,0.047464308923620156,-2.2846525852043432e-05,5.539736135812596e-06,-3.219236989337081e-05,-3.313920430199936e-06,-0.033204592164455544,0.008051319499498515,-0.04678761751520604,-0.00481637239127121,0.012062644882669955,0.014170878918646433,2.863838825031448e-05,0.04746431053269612,0.10401356698699829,0.0004447174447174425,False,True,False
0,2.0179833985121096,0.04003430505563593,1.870667780201447,2.0692905752679027,0.014538360576545159,0.015013831866327093,0.0008943125730499657,0.0520169138466538,0.013109588754319756,0.032352346003541255,6.467708713042697e-08,0.23801138947760747,0.4630620406072415,0.03706584162556141,0.3686078288361384,0.4994127755246539,0.85368778280543,33.40077310488984,-111.65,124.46,32.834,0.010422276776743046,32.79,32.87,-2.9680829654459683e-05,1.733639136862725e-06,-4.248374961454656e-05,-1.7103847247414853e-05,-0.0013046489271369066,0.007030091366517429,-0.011735668134075446,0.03644342761262459,-2.546759632484776e-05,1.487546750700191e-06,-3.64531247321993e-05,-1.4675933333742575e-05,-0.03701399306187821,0.0021619647338259546,-0.05298009630398331,-0.02132964916134393,0.004891425229216556,0.005212928208447007,5.33266539833442e-05,0.03644343649568654,0.09502262443438915,-0.00020864233708276953,False,True,False
0,1.8187908775754968,0.05782986458663666,1.7269665368595146,1.901170808245616,0.025513172082654294,0.008389509061505361,0.0078113839584997204,0.04688521502258995,0.01791683143481965,0.03791823253880164,2.960480749436556e-08,0.23484115252967064,0.33186621908272557,0.03402425717222771,0.28402643408315514,0.3689160805317398,-0.9587386877828054,25.989243801453814,-127.18,95.27,32.81558558558558,0.014057329675599554,32.79,32.83,-3.073874167768141e-05,1.0563901120241676e-06,-3.420769449482971e-05,-2.5379902367131716e-05,0.008940146854598428,0.005744603023359358,-0.013112442872189678,0.02955554387840441,-2.6375336326332714e-05,9.064341276103722e-07,-2.935186666748515e-05,-2.177719139845672e-05,-0.03833328058663657,0.0013173895990210018,-0.04265929832268786,-0.03165044714263938,0.00944068790865359,0.004877635326343667,0.0006494193694332422,0.029555562798461436,0.10407239819004525,0.00013899613899613278,False,True,False
0,1.6523757520097468,0.04195825270117546,1.5828232279472159,1.724731709533185,0.0018571383351323972,0.003946969590278312,1.4040558294026872e-05,0.028417971948539875,0.003841642085485515,0.03532374644021115,9.077588741801534e-08,0.36948786214907187,0.25415056850566864,0.024447134500183803,0.21210059723069985,0.2871458124177936,0.09523459581684574,12.058452432721046,-28.3,24.77,32.84218181818182,0.012219837847976452,32.83,32.87,-3.072875548749171e-05,1.6049320517124009e-06,-3.586290551877307e-05,-1.6000373231452603e-05,0.007035559203129045,0.004528990048740678,0.005466330175358475,0.03849488873732843,-2.636676768915056e-05,1.377109807834487e-06,-3.0772118280427976e-05,-1.372909892511402e-05,-0.038320827135075425,0.002001458332481043,-0.04472345791894695,-0.01995354276383787,0.0070356916152513275,0.0045289658134182115,0.005466487245445363,0.0384949087557675,0.10853589598643301,0.000183937064670993,False,True,False
0,1.4875322544281144,0.0933470784207108,1.361321421573874,1.6631564307505724,0.029779551777747902,0.016493814684800663,0.0013814589720337514,0.05642910864605416,0.01973708230578722,0.06665195104220846,4.393921404499679e-08,0.3915629635001555,0.12565026020791986,0.045371593467701116,0.07916305206960261,0.21112877850590184,-0.26595588235294015,97.48796287307081,-815.51,378.75,32.844414414414416,0.01886240535537046,32.81,32.89,-3.150330936408059e-05,2.896187836883523e-06,-4.027680158262207e-05,-1.6552110239433728e-05,0.01922265833048081,0.0065731610304709046,-0.004863824574451373,0.03919898211067757,-2.703137261059175e-05,2.485070113247356e-06,-3.455945591494219e-05,-1.4202516129428297e-05,-0.039286747971786405,0.003611741239995816,-0.050227883508971186,-0.020641595962590898,0.019235509523321606,0.006535548374009715,6.418949090587729e-05,0.039198988178230296,0.09502262443438915,-0.0003674096174096222,False,True,False
0,1.32928353313693,0.023197352960615016,1.289143883335652,1.375462809798143,0.009303931000136245,0.0071080218395004205,0.00021211074315410837,0.020120193454723694,0.007557326124167263,0.027200643452380116,7.182026368068861e-08,0.1941331498797505,0.050332711640196426,0.015253367766726846,0.025180287266736157,0.07861386843927609,-0.35360655737704866,97.9206292619809,-564.25,597.3,32.822,0.010387006703417842,32.81,32.84,-3.360545952340624e-05,1.1320615454566997e-06,-3.8069853550697574e-05,-2.9242061422999583e-05,0.014551462435313847,0.003288444269298552,0.003395487173017672,0.022668328484792395,-2.88351197529455e-05,9.713639002083138e-07,-3.2665787097685084e-05,-2.5091111828656657e-05,-0.04190827076337099,0.0014117569716538376,-0.04747567071395907,-0.03646681953391059,0.014551536048644667,0.0032884169678395045,0.0033958365312987517,0.022668365044446557,0.14471452798191067,-8.006672226854684e-05,False,True,False
0,1.2496748415336898,0.04790010219766877,1.1622491028279187,1.3660044548628363,0.020161669462270236,0.012431478051758411,0.0018239125680027824,0.04459298703031096,0.015404299460929324,0.061020388635944174,3.867474096530543e-08,0.4039492331929161,-0.00910130637032694,0.032451401388990476,-0.05194952637125094,0.029607996568547512,0.5619117647058822,51.636616781194554,-264.29,290.62,32.876666666666665,0.03183289703016848,32.81,32.95,-3.225601844962951e-05,2.8574402875616926e-06,-4.4138960638489935e-05,-2.3172954335207218e-05,0.017152138563220894,0.007405382580797945,0.0013319959173667536,0.028862143954786007,-2.7677233638196978e-05,2.451822830196519e-06,-3.7873376345142124e-05,-1.9883522581199616e-05,-0.040225426883207405,0.0035634204370243424,-0.055044255900242395,-0.02889823434762726,0.01715221571478097,0.00740532674758155,0.001332859870188828,0.02886217065437664,0.10407239819004525,0.0007948402948402813,False,True,False
0,1.1412268912712762,0.042491016927408004,1.0798238935896185,1.2255899186132773,0.012284819133169709,0.015701420579105747,0.00016284480574477165,0.06418906897236434,0.00909098163336504,0.04398328873007272,4.1216786206277334e-08,0.3369948128392336,-0.06693878863869716,0.02235739355444448,-0.09116398417743143,-0.027604903370262335,0.0025735294117646803,33.82525379892445,-268.89,292.91,33.08563636363636,0.07027504643750211,32.95,33.21,-3.1596305760222216e-05,2.0816228599017323e-06,-3.6966379534735316e-05,-2.7035113391075092e-05,0.006043680565733159,0.01429818145832693,-0.017243435427140543,0.0274893792603208,-2.7111168044350606e-05,1.7861337204429136e-06,-3.1718952689056526e-05,-2.3197443011399553e-05,-0.03940272073944954,0.0025959238670497467,-0.046099564316453005,-0.03371460673889847,0.012358953128990467,0.009385652420832159,0.0013405909548879784,0.02748940234229318,0.11312217194570137,0.002145571760250639,False,True,False
0,1.0402775040516694,0.028516627590324837,0.9723950183170166,1.0816113002671606,0.016201046688711883,0.01939039382934987,1.1380470205713612e-06,0.059157832149393345,0.015797687824530685,0.05756025227643927,4.2045268378032574e-08,0.3294033411168961,-0.13225620124685908,0.03130793794966463,-0.1924609052073618,-0.09168573489019816,-0.04087054833239048,43.97724955890948,-286.28,350.83,33.245135135135136,0.0199483362197496,33.18,33.27,-3.1668705639097564e-05,3.296638307963645e-06,-4.910459371032006e-05,-1.1034740159622484e-05,-0.006757776999200814,0.010464354695217695,-0.030306421094325544,0.03714150592050019,-2.717329066392126e-05,2.828676106216332e-06,-4.2134131183970615e-05,-9.468344086285531e-06,-0.0394930082632678,0.004111129940741192,-0.06123673468901967,-0.013761063975060599,0.00928859952140851,0.008297467004067588,4.937653146605946e-05,0.037141508766575175,0.10853589598643301,0.0004420849420849818,False,True,False
0,0.9844733228010264,0.030261595684276502,0.9157079434249268,1.0890974807546245,0.038479502136985144,0.017760755351990423,0.004344977662244701,0.0769255637507921,0.02784007681367609,0.08475655144040344,3.8844579997032724e-08,0.443417998105779,-0.18864006782279458,0.010856629095622685,-0.2040717692971178,-0.17107319973306578,-0.21510180995475167,80.45475932759736,-346.01,596.91,33.27509090909091,0.013929406195675103,33.25,33.29,-2.2231755909827653e-05,1.085579501456472e-05,-6.069107087792367e-05,1.655211023943373e-06,0.00018400014072286037,0.019006174751783986,-0.03306130725177035,0.04539814430553655,-1.9075928526781145e-05,9.31480044307616e-06,-5.207589247457043e-05,1.4202516129428298e-06,-0.027724496537989734,0.01353790733035981,-0.0756858518628333,0.00206415959625909,0.016723518130928764,0.009015367114715001,2.468826573302973e-05,0.04539814663399103,0.13574660633484165,-0.00018465838649322648,False,True,False
0,0.9414288683431751,0.06809462191523254,0.8636621842774561,1.0255621026887676,0.03491823181781531,0.02022904455248034,0.006926111261211283,0.06850144258648674,0.025635810608358033,0.050420658155439314,2.5506902256999808e-08,0.4112427881240764,-0.21117080687805867,0.022023943045502432,-0.2405144017646626,-0.1815515538168036,0.2804522328999436,25.80295161654353,-313.8,156.09,33.248378378378376,0.01851488543850732,33.21,33.27,-1.901591211010198e-05,1.6893489951509535e-05,-4.689764567839556e-05,6.069107087792367e-06,0.0013662885208375415,0.013541542626544995,-0.02275320774203015,0.020643600984415412,-1.631657804067126e-05,1.4495436536366218e-05,-4.024046236671351e-05,5.2075892474570424e-06,-0.023714122789112908,0.021067319449479392,-0.058484521894007546,0.00756858518628333,0.013207847430741803,0.003255577449622713,0.002707872103733489,0.02275326629101628,0.11305822498586772,6.949806949807912e-05,False,True,False
0,0.8326936194356004,0.01925966117308636,0.7999506887524527,0.8646068729630954,0.0005575368086684722,0.001161528872449339,7.320472787249694e-07,0.006192410076735143,5.3163771195875645e-05,0.0004033021818345297,7.940333233980024e-08,0.0040658643057338555,-0.24271629847218884,0.01116948144843065,-0.261980980372315,-0.22750955836470438,0.08751131221719452,7.314668838750325,-24.5,15.51,33.325135135135135,0.031590126905982646,33.27,33.39,-3.356982659646238e-05,2.037829333962994e-07,-3.420769449482971e-05,-3.3104220478867456e-05,-0.010453306629942464,0.0002560314696600102,-0.0110502882977551,-0.0096728452190327,-2.880454496747475e-05,1.7485567438814946e-07,-2.935186666748515e-05,-2.8405032258856593e-05,-0.041863834104219996,0.00025413103914790887,-0.04265929832268786,-0.041283191925181796,0.010453400274522802,0.00025602933330644566,0.00967294357300997,0.011050380227030327,0.11312217194570137,0.0008655668655668609,False,True,False
0,0.7688059451099629,0.016923356405287325,0.7409433780013982,0.799530954356944,4.957357407304233e-05,0.00010119538539874542,2.3033921852675058e-07,0.00038785676655793844,3.864827190134809e-05,0.00040081112159077813,1.5352241504756343e-07,0.004204151197899556,-0.2812242509547237,0.010295490716005,-0.2977012261971319,-0.2623573533031481,-0.0013453928773319278,9.510716145758101,-45.74,37.84,33.437090909090905,0.020912463012705173,33.39,33.47,-3.3769550400256453e-05,5.908205428143886e-07,-3.917332756665982e-05,-2.9793798430980708e-05,-0.008291318035891216,0.0024425313959752152,-0.011051624978971443,-0.0021042600327493685,-2.8975917711117927e-05,5.06952779285381e-07,-3.3612621506313634e-05,-2.5564529032970932e-05,-0.04211290313544281,0.0007367929982799869,-0.04885177711146513,-0.037154872732663616,0.008291452246106456,0.0024424811887576487,0.002104712099242439,0.011051722922953418,0.12662521198417184,0.0005113270067398933,False,True,False
0,0.7132967716092172,0.01611264878994374,0.6852844543235445,0.7402988980499341,1.0346798961735818e-06,1.6791535571526723e-06,2.1853218436088817e-07,9.378566083787685e-06,2.883405590863195e-07,2.1983556667597493e-07,1.2021490723811208e-07,2.0436038011851596e-06,-0.3147240013917658,0.009662156221618227,-0.3308394455966101,-0.29798984066061274,-0.04893099547511309,7.189156649642325,-16.8,10.21,33.43630630630631,0.010781122215828581,33.41,33.45,-3.38937536407409e-05,2.733833817853949e-07,-3.420769449482971e-05,-3.365595748684858e-05,-0.006094990969035984,0.00028563490510755124,-0.006921969105236921,-0.0048578095089778315,-2.9082490136071033e-05,2.3457624636129445e-07,-2.935186666748515e-05,-2.8878449463170872e-05,-0.042267792939234494,0.0003409274846573193,-0.04265929832268786,-0.04197124512393483,0.006095154980791011,0.0002856268088583904,0.004858018621202986,0.006922115860941215,0.1085972850678733,-7.335907335908483e-05,False,True,False
0,0.6595139271027808,0.02297327058755494,0.6261496669340705,0.6969091894855095,0.0025464836401041277,0.0034569479946416114,5.219167551732238e-07,0.010599395472772465,0.0019599891884297216,0.006631102219917913,5.8909828810210785e-08,0.04183197888310545,-0.3502329174231972,0.010779812317094932,-0.366722142449273,-0.3311624921375847,-0.08755656108597289,21.107700682340344,-89.41,56.43,33.41672727272727,0.02763155658118678,33.34,33.45,-2.95859608476575e-05,2.742300466570612e-06,-3.9725064574640946e-05,-2.3172954335207218e-05,0.016085154414845714,0.016576481391727255,-0.013801164411550878,0.030929645254085952,-2.5386194271617253e-05,2.353027260259494e-06,-3.408603871062791e-05,-1.9883522581199616e-05,-0.036895685272047375,0.003419833327603046,-0.04953983031021816,-0.02889823434762726,0.021401595344656604,0.008675221943115112,5.727677650062896e-05,0.030929665768681044,0.0904977375565611,-0.0007050920812389112,False,True,False
0,0.6048600579001688,0.013340839264242885,0.5784466624265424,0.6265055875926397,4.079624905524578e-05,7.194023439240985e-05,2.758746966155471e-07,0.00026224236526834475,3.162199747262768e-05,0.00022497870029423433,9.426687402338658e-08,0.0017332564825870995,-0.3807697949333184,0.008131080709261778,-0.39600386317335656,-0.36696596585726465,0.055715093273035504,19.601973292721222,-47.52,99.7,33.292882882882886,0.030995230934843784,33.23,33.34,-2.6860552529792925e-05,1.6392615919036055e-06,-2.9242061422999583e-05,-2.2621217327226096e-05,0.028418656896343583,0.001966887348248635,0.02404643990412297,0.03368653643335528,-2.3047661297040238e-05,1.4065662240393446e-06,-2.5091111828656657e-05,-1.941010537688534e-05,-0.03349691759127039,0.0020442695805912786,-0.03646681953391059,-0.02821018114887423,0.028418679270238154,0.0019668837017561,0.02404647077482778,0.03368655027182296,0.10853589598643301,-0.000884257634257614,False,True,False
0,0.5840601405762204,0.021146166308330817,0.5548135195761079,0.6485783499632534,0.009398451828547793,0.011998838010457324,1.7919842875289365e-06,0.045619095535008425,0.007287503736015529,0.0369848162100859,3.306763485255715e-08,0.303618275381523,-0.4028440861610827,0.00855609962746384,-0.41366917087588867,-0.38646761970013555,0.05586538461538454,31.553959558562656,-124.93,183.76,33.22472727272727,0.01583800393485587,33.18,33.25,-4.865771169933082e-06,1.6005716269227005e-05,-3.8621590558678696e-05,2.813858740703734e-05,0.024572549238508913,0.008345035594954166,0.007565911823850645,0.042670660113026775,-4.175068467006901e-06,1.3733683511554866e-05,-3.313920430199936e-05,2.4144277420028106e-05,-0.006067944273165861,0.01996020589170234,-0.0481637239127121,0.03509071313640453,0.024572558029625543,0.008345038795709147,0.007565912382712622,0.04267066190286733,0.0995475113122172,-0.0001335347023420147,False,True,False
0,0.5918150260986712,0.004463200572673393,0.5770058715518304,0.5984520448274876,7.679203384306e-05,0.0001867495845302019,2.408853528016006e-07,0.0009930256067075401,2.597999678182906e-07,1.2709782301522715e-07,1.0950796951390164e-07,6.791189632202814e-07,-0.38867753398860333,0.002426638827956221,-0.3935059487254571,-0.38550252441986,0.13045788581119266,21.255949059851886,-75.86,83.96,33.193243243243245,0.023477732667444046,33.16,33.23,6.705726712385973e-06,2.9669029502840155e-06,2.758685039905621e-06,1.3793425199528107e-05,0.01758616978748034,0.0009502053661922513,0.015841263745915803,0.023407843910374617,5.753839867819669e-06,2.545747122047848e-06,2.3670860215713828e-06,1.1835430107856916e-05,0.008362492723306057,0.0036999277478275625,0.0034402659937651497,0.01720132996882575,0.01758617237957321,0.000950206509089886,0.01584127335492036,0.02340784888915538,0.10401356698699829,-0.00040268515268516373,False,True,False
0,0.5705434867518054,0.01041916526096935,0.5382708261418955,0.5833212217423702,0.0007498362853565028,0.001371410749456501,2.200168480618e-07,0.00621770643792325,0.0012832263765038656,0.008360465545132456,5.084457159465483e-08,0.08323713435791436,-0.4022601825348788,0.006388841477782305,-0.41550706279995653,-0.3936583282612138,0.10518099547511317,19.157826556266194,-84.71,56.57,33.16763636363636,0.011803223998014888,33.15,33.18,1.2194386495401815e-05,1.2309010859832002e-06,5.517370079811242e-06,1.7655584255395975e-05,0.018565744318871227,0.0011061306086569103,0.013779777512089395,0.024783950307880675,1.046337707906373e-05,1.0561730362185702e-06,4.7341720431427655e-06,1.514935053805685e-05,0.015207221037598077,0.0015350165337980985,0.006880531987530299,0.02201770236009696,0.018565751418829844,0.001106129332897796,0.013779792547645399,0.024783955010219197,0.1085972850678733,-4.255798751212465e-05,False,True,False
0,0.528351376684024,0.02930050452784367,0.4790178379535896,0.5620540746675448,0.0068624436283604975,0.007012525288243764,0.00017694035026639737,0.02842484200465404,0.0057057316573245484,0.024526936426089656,5.866858932002117e-08,0.1651311150365502,-0.4342717694213572,0.020143275183353473,-0.4618226140874405,-0.4113939017019194,-0.2414075749010736,49.662636484119645,-323.02,339.8,33.16162162162162,0.010316847698660607,33.15,33.18,-7.233677405203372e-06,2.2118429737263712e-05,-4.579417166243331e-05,2.2621217327226096e-05,0.020687255813253157,0.008128584566791027,0.004085545393595217,0.04882638016835462,-6.206847256111358e-06,1.89786891554597e-05,-3.929362795808496e-05,1.941010537688534e-05,-0.009020882785459216,0.027583171170274465,-0.05710841549650149,0.02821018114887423,0.020687280004869732,0.008128580772785518,0.0040858103300368195,0.04882638798388584,0.12662521198417184,4.2295542295539116e-05,False,True,False
0,0.4871074776660932,0.01458848004236659,0.46683279229831476,0.518453088091577,0.001751807500297278,0.0034382317810520945,2.7665175884354215e-06,0.0167492387401634,0.00021043043811719707,0.0011292426978723694,7.361368153241399e-08,0.008317979059737784,-0.4540314649384062,0.006748775602572703,-0.4646578513615625,-0.4439579634119911,-0.07506221719457015,10.914682934537854,-38.1,36.59,33.174,0.009207097382012497,33.16,33.18,-2.8840117267864017e-05,2.591747208993367e-07,-3.0345535438961837e-05,-2.869032441501846e-05,0.025841002160319117,0.00037269930420974473,0.02335838670536994,0.026111267840990233,-2.4746224182074766e-05,2.2238452382605928e-07,-2.6037946237285214e-05,-2.461769462434238e-05,-0.03596556810857467,0.0003232083278285613,-0.03784292593141665,-0.03577876633515756,0.025841030115927362,0.0003726985545296362,0.023358418485412324,0.026111295207812545,0.10407239819004525,-0.00010792777765256517,False,True,False
0,0.4483722675154452,0.010887500270861057,0.42930815832918046,0.4677914976976292,5.108826425381253e-07,4.071130475568385e-07,2.556947509038578e-07,2.4779966798283022e-06,2.6594897985390786e-07,8.429553284198429e-08,1.5018992130456766e-07,5.215345752142635e-07,-0.47589492920761717,0.006542216502101164,-0.487606576321431,-0.4648873125567531,0.08658936651583701,10.332169660837375,-57.41,39.08,33.16612612612612,0.013562727747308557,33.15,33.21,-2.927326826734241e-05,8.466364593955625e-07,-3.144900945492408e-05,-2.7586850399056214e-05,0.025085486966685062,0.0014393785640712602,0.021292222087286337,0.02748804257910446,-2.5117888819850904e-05,7.264552855430301e-07,-2.6984780645913764e-05,-2.367086021571383e-05,-0.03650573657003915,0.0010558126709672986,-0.03921903232892271,-0.0344026599376515,0.025085516847421226,0.0014393750617789068,0.021292261009769733,0.027488067584988455,0.11312217194570137,-0.00010196560196560985,False,True,False
0,0.41703183553457146,0.006542281068498018,0.40806446510057387,0.4287744104553958,3.596349083754613e-07,1.3366032207430625e-07,2.538078507224553e-07,7.551425774775703e-07,2.9576973165806623e-07,1.595271709789231e-07,1.7964060242374904e-07,9.552223771910736e-07,-0.4949702573791194,0.004022772954742995,-0.5008858148172444,-0.48777093417001766,-0.10563595251554547,6.683681582507783,-18.96,12.65,33.14636363636364,0.01122965215725435,33.13,33.16,-3.015704609913118e-05,2.631261152685172e-07,-3.0345535438961837e-05,-2.9242061422999583e-05,0.023478699501381133,0.00026867124974924765,0.022668996825400568,0.02404643990412297,-2.5876213210471963e-05,2.2577501249791022e-07,-2.6037946237285214e-05,-2.5091111828656657e-05,-0.03760786703320012,0.00032813598266396454,-0.03784292593141665,-0.03646681953391059,0.02347873313840336,0.0002686705747553824,0.022669032089972136,0.02404647077482778,0.10853589598643301,-8.150936591301942e-05,False,True,False
0,0.4068082350990612,0.002195418565807517,0.40206068482476964,0.410891989906835,0.00023795569583380256,0.0004371126833620006,1.7698323873457178e-07,0.0015333706047173676,0.000183080907180625,0.0011225921231092794,1.0946700255295403e-07,0.010334189193123044,-0.5012911940712597,0.0006564154392913678,-0.5031184853831276,-0.5003009800829463,-0.020265837104072388,7.282256027072591,-49.57,37.95,33.13558558558559,0.009971293768948097,33.11,33.16,-2.509404767295145e-05,2.9734976362244467e-06,-3.089727244694296e-05,-2.2621217327226096e-05,0.030402724851528666,0.0040671788989759886,0.022668328484792395,0.03368720477396345,-2.1531914159117424e-05,2.551405683529292e-06,-2.651136344159949e-05,-1.941010537688534e-05,-0.03129396709170172,0.0037081517652315936,-0.03853097913016968,-0.02821018114887423,0.030402744172500176,0.004067170757316742,0.022668365044446557,0.033687217961039906,0.10407239819004525,-2.75535275535255e-05,False,True,False
0,0.3949783608495303,0.004838095327624434,0.38646015497876895,0.4038518742241212,4.072481930143129e-07,1.961042196919023e-07,2.407465155533955e-07,1.2382943161505275e-06,2.5078109670841683e-07,7.796559328752478e-08,1.4448627968797365e-07,5.049007411062561e-07,-0.5083685968729823,0.0028580644250654976,-0.5130972706809827,-0.5032394858695665,0.06545505935556806,7.105872024442785,-29.51,28.53,33.13818181818182,0.013353473807174743,33.11,33.15,-2.31760714934444e-05,4.137716067390613e-08,-2.372469134318834e-05,-2.3172954335207218e-05,0.032998479458666616,5.0121772382629357e-08,0.03299781489399408,0.03299848323460225,-1.988619725467032e-05,3.5503617566602406e-08,-2.035693978551389e-05,-1.9883522581199616e-05,-0.028902121653834902,5.1600105385668203e-05,-0.029586287546380288,-0.02889823434762726,0.03299849358952841,5.007069948410574e-08,0.032997829702031536,0.03299849736161646,0.10401356698699829,6.356648558482877e-05,False,True,False
0,0.38114853264895593,0.003543744940744974,0.3742896548192289,0.3869241603256264,3.345008745952281e-07,6.544616341043699e-08,2.535747467736264e-07,4.955519584513491e-07,2.5868645409985576e-07,7.534483489167304e-08,1.6659114072776633e-07,5.25925165288081e-07,-0.516741750700881,0.0022028471542729507,-0.5205494549155585,-0.5131674418034646,0.08079751131221719,6.224297942401479,-16.49,9.42,33.13540540540541,0.01291818899380172,33.11,33.15,-2.359923982893019e-05,2.3138436607131957e-07,-2.372469134318834e-05,-2.3172954335207218e-05,0.032852417143197046,0.0002812161407783957,0.032309761695241045,0.03299848323460225,-2.0249296280913024e-05,1.9853904690631695e-07,-2.035693978551389e-05,-1.9883522581199616e-05,-0.02942984106114346,0.00028855188416554526,-0.029586287546380288,-0.02889823434762726,0.03285243186289704,0.00028121595442324586,0.03230977681862322,0.03299849736161646,0.11312217194570137,-2.825552825551627e-05,False,True,False
0,0.37003451752549005,0.002607844668319266,0.3625608496918796,0.3749329114803434,9.176155707187136e-06,7.778610304025904e-05,1.8390351093212095e-07,0.0007991196714883635,0.00027625469380423686,0.0020373892737691234,1.1946489512979478e-07,0.015404302927564197,-0.5233401706803301,0.0013851348951032778,-0.5247686729105958,-0.5206018923978672,-0.19894796380090485,10.587862738810818,-63.26,55.57,33.145636363636356,0.010625162511633441,33.13,33.16,-2.489931696425223e-05,3.2891768094021203e-06,-3.6966379534735316e-05,-2.2621217327226096e-05,0.027988547815033023,0.011183178467976031,-0.008296070480918469,0.03299915157521042,-2.136482573406533e-05,2.822273777320691e-06,-3.1718952689056526e-05,-1.941010537688534e-05,-0.031051124786259477,0.0041018249496340455,-0.046099564316453005,-0.02821018114887423,0.028454121357106447,0.009937635710756489,5.2339123354023015e-05,0.03299916503724566,0.1085972850678733,3.6066091111955494e-05,False,True,False
0,0.3698110433463227,0.001764697071915954,0.3673329488133457,0.3759506907607744,0.0005842771717516676,0.0008054338659417129,5.940390539466212e-07,0.002778123427376593,0.00027044007151306873,0.0012503114639651417,1.0957977955773244e-07,0.008211258983131258,-0.5243739061996424,0.0009008343120011179,-0.5266447178835651,-0.5233904123532043,0.11816280384397952,19.842102260895917,-98.39,145.22,33.22351351351351,0.04370663874367776,33.13,33.29,-3.073499685636028e-05,3.401081674747493e-07,-3.365595748684858e-05,-2.869032441501846e-05,0.00888021915520891,0.0004500436136437461,0.00408755041541973,0.012346862162888775,-2.637212308738941e-05,2.918293597877628e-07,-2.8878449463170872e-05,-2.461769462434238e-05,-0.03832861054230114,0.00042413778515476737,-0.04197124512393483,-0.03577876633515756,0.008880311875885305,0.00045003645180998543,0.004087790978868142,0.012346931703381076,0.10853589598643301,0.001188311688311715,False,True,False
0,0.36578393321185443,0.0018265459826966226,0.3619266091681851,0.3696714171195458,0.009779916799878505,0.011250888658537163,1.0056395273434392e-05,0.031139672473804225,0.007522377528289523,0.013815475887284451,4.1824130353473876e-08,0.05688929738536841,-0.535577186461115,0.0127585127537531,-0.5585353456816761,-0.5230539315104585,0.05194004524886869,9.408033787294045,-21.42,14.33,33.24072727272727,0.01290111231312305,33.23,33.27,-3.037736642019152e-05,3.463995999784217e-07,-3.089727244694296e-05,-2.9793798430980708e-05,0.009535236914620427,0.0005196137757116502,0.008907264509731797,0.0102847075884542,-2.6065258768303347e-05,2.972277150619891e-07,-2.651136344159949e-05,-2.5564529032970932e-05,-0.037882621308267785,0.0004319836251043662,-0.03853097913016968,-0.037154872732663616,0.009535321249283893,0.0005196080737516289,0.008907357550933038,0.010284782515715974,0.11312217194570137,-4.156617000654348e-05,False,True,False
0,0.343673503044722,0.004634035338586603,0.33789673140159454,0.36133423483735827,0.0010632707257778127,0.001890610372628772,5.89865894959511e-06,0.008404785743781642,0.0012784378161181029,0.005577274485096213,9.707287974489165e-08,0.038951909570754256,-0.5405112800404956,0.0011094968036853856,-0.542100197300749,-0.5384722807263133,0.25184389140271485,19.956971478073395,-78.47,103.58,32.705999999999996,0.022955881099713436,32.66,32.73,-2.1726205031473907e-05,7.225612261081265e-06,-4.855285670233894e-05,-2.206948031924497e-06,-0.0008147769535150035,0.012142087543023731,-0.06334634144663441,0.016504588342166497,-1.8642141269434355e-05,6.199926969947029e-06,-4.166071397965634e-05,-1.8936688172571063e-06,-0.02709404055270698,0.009010825007693093,-0.06054868149026664,-0.00275221279501212,0.009696620949436333,0.00734607878693254,2.2713204474387347e-05,0.06334636073707267,0.1085972850678733,-0.0006066316525031813,False,False,True
0,0.38890843596430014,0.036633646557769864,0.3199033206361037,0.44663862912059693,0.009168555112263943,0.00657811500526459,0.0008965863899295784,0.025020031773646284,0.007206527166955034,0.023333894165304733,7.846993710369787e-08,0.16145516666560966,-0.5213913366813863,0.018077682105065558,-0.5443017046155458,-0.5005683758886895,-0.10788581119276429,16.931783155409097,-78.45,89.16,32.63954954954955,0.018654143453319505,32.61,32.68,-2.651957632253164e-05,8.283990882806593e-06,-5.075980473426343e-05,-7.172581103754615e-06,-0.005603487091759487,0.012075028664407031,-0.06472311618474863,0.01854802937957227,-2.2755087116870604e-05,7.108067335656092e-06,-4.355438279691344e-05,-6.154423656085595e-06,-0.03307169730205457,0.010330694412202659,-0.06330089428527876,-0.00894469158378939,0.010479279419452613,0.008203817568347644,4.147628643148994e-05,0.06472313562422534,0.13566986998304126,-0.00044752544752541727,False,False,True
0,0.5245891939878408,0.08593796869924256,0.4212073365442064,0.8620418049425295,0.014327660525271001,0.023126992157552345,0.0003065686373670597,0.12991048198387073,0.019372694100704347,0.07679709179709616,7.437164713242073e-08,0.5083003564210942,-0.44376523267957346,0.03385861665811768,-0.5006897317053072,-0.360353215429179,-0.16455882352941173,12.779745865598969,-45.11,53.53,32.579454545454546,0.021281700095759047,32.53,32.61,-2.3391402245606984e-05,7.50499566467592e-06,-4.4690697646471064e-05,-1.1586477167603609e-05,-0.005475163296591343,0.015616638404242256,-0.039947185964166014,0.017183284772405126,-2.0070961519559342e-05,6.439651527024617e-06,-3.8346793549456406e-05,-9.941761290599808e-06,-0.029170653600527216,0.00935923492354269,-0.05573230909899543,-0.01444911717381363,0.01425989316208151,0.008385521168872742,2.073814321574497e-05,0.0399472097797948,0.14027149321266968,-0.0005038432928341328,False,False,True
0,1.1573262319224722,0.4376756735392822,0.7449351406254239,2.2126401679656933,0.13531434395913175,0.10712463791519022,0.012875564438832088,0.38438384850108936,0.12464706826522956,0.3133876188581487,3.311506890923965e-08,2.1229004840019314,-0.180165030990383,0.16934992431370213,-0.35732626009301793,0.28686649282360605,0.1155398530243072,19.507569996439152,-87.5,71.32,32.535045045045045,0.018774928828038755,32.5,32.57,-1.9945448696429505e-05,6.84589570933924e-06,-4.744938268637668e-05,-6.620844095773492e-06,0.01699913064273347,0.019866964344135575,-0.042709423868300705,0.07430172537802918,-1.7114165669634633e-05,5.874111688830855e-06,-4.071387957102778e-05,-5.681006451771319e-06,-0.024873317500232413,0.008537292900427762,-0.059172575092760575,-0.00825663838503636,0.02123854858066503,0.015244938984756751,5.036406209538064e-05,0.07430172589019367,0.1628038439796495,0.0002839592839592676,False,False,True
0,2.813997319904765,0.3437956767551855,2.2447313650394185,3.6329340789532973,0.40899515694236727,0.20136229796181074,0.09850076343794806,0.9150573797648311,0.3245973941922262,0.6527510648207221,4.054078317494714e-08,3.876906979162559,0.5527575340867457,0.07315218380562898,0.3036116657800998,0.6814769468122128,0.2301809954751132,16.298811427740226,-64.96,55.91,32.509459459459464,0.020083364343194843,32.47,32.55,-2.036558661812679e-05,4.935483702408708e-06,-4.027680158262207e-05,-2.758685039905621e-06,0.007229465903092319,0.009574716186103052,-0.027548193233839877,0.08737941453859395,-1.7474664453365212e-05,4.234885212581104e-06,-3.455945591494219e-05,-2.3670860215713828e-06,-0.025397257777501545,0.006154880495078077,-0.050227883508971186,-0.0034402659937651497,0.00906186261014112,0.007860659570193584,2.5675796362350915e-05,0.08737941461420351,0.13122171945701358,-0.0004369954369954292,False,False,True
0,3.5914559847646728,0.34441490002396624,3.0288448806633754,4.352465943901031,0.4208575568524277,0.3008423814563264,0.014203106494011592,1.097680682364774,0.30871949585263064,0.7353466545861713,5.587112283933493e-08,4.152833098887331,1.0131837125003775,0.13725170476716303,0.6892922146151075,1.1447880206267,-0.23031091011871088,22.766820219367872,-166.38,177.78,32.47590909090909,0.013633166152785918,32.45,32.5,-1.6480334497445233e-05,4.264936322796903e-06,-4.358722363050881e-05,7.72431811173574e-06,0.005752989865828575,0.006666780167735867,-0.03788904143338047,0.013740345416207288,-1.414092904968153e-05,3.6595229272457955e-06,-3.739995914082785e-05,6.627840860399872e-06,-0.020552086779495198,0.005318662763109028,-0.054356202701489366,0.00963274478254242,0.008069423233590459,0.003520156430385783,1.2837898181175457e-05,0.037889074640426595,0.13566986998304126,9.002997993825171e-05,False,False,True
0,3.8675470396944966,0.42436568802310803,3.4017556357230783,5.064170234649242,0.40595730125084406,0.2159382062365759,0.12788961411229433,1.0761082574166663,0.32211307508195086,0.7703171854386305,5.6488062227799674e-08,4.356799925503735,1.1960441383530365,0.07260025407710355,1.06639904223762,1.2819398187577584,0.10146493212669722,23.277416784260563,-112.45,123.64,32.44342342342342,0.02661153186446964,32.41,32.5,-2.4326359302117983e-05,7.389247835953549e-06,-4.4690697646471064e-05,-8.276055119716864e-06,-0.011374561842271777,0.017868873345674573,-0.07710807376230318,0.01649188987061124,-2.0873200175738962e-05,6.340334256864144e-06,-3.8346793549456406e-05,-7.101258064714148e-06,-0.03033660800293902,0.009214889587541828,-0.05573230909899543,-0.010320797981295449,0.017043357724533977,0.012570597904139922,4.048875580216875e-05,0.07710809007944747,0.1900452488687783,-0.0007172692172692454,False,False,True
0,4.079979317976088,0.20821030826781917,3.848804500156968,4.595493135490213,0.24277428719470304,0.15602962810355014,0.041253805981067995,0.5350165740110595,0.16946853157017577,0.40400983213523867,4.3953436446031446e-08,2.7115894308697257,1.488685749933736,0.09412086581330147,1.2842499717219336,1.5845676798957125,-0.1414819004524886,16.817587284106153,-65.03,88.62,32.41254545454546,0.014363330198065096,32.39,32.43,-2.3352705758621882e-05,7.865759135245967e-06,-6.344975591782929e-05,-6.620844095773492e-06,-0.0055755223752355,0.016086138210786208,-0.05509103974281439,0.01925078607170507,-2.0037758050478473e-05,6.749204142102834e-06,-5.4442978496141804e-05,-5.681006451771319e-06,-0.029122396475727792,0.00980913126242931,-0.07912611785659844,-0.00825663838503636,0.013613466116340782,0.010215195088661507,3.357604139692043e-05,0.05509106324784877,0.09502262443438915,1.8033045555991842e-05,False,False,True
0,4.090967934784174,0.17630422075542396,3.8005977986697386,4.5555242758862295,0.25611197461240637,0.11929549472254379,0.06033590974973274,0.5539834696075725,0.18878224704266577,0.4411427671075128,7.036279292549352e-08,2.510565009995532,1.4820000341468025,0.03188545544705739,1.4433414266294464,1.5374102657434876,0.03192198982475991,16.700204788236103,-81.61,48.5,32.36288288288288,0.01790821992003382,32.33,32.39,-2.0861893218160862e-05,6.182143460804052e-06,-4.689764567839556e-05,5.517370079811242e-07,-0.0018328682134147252,0.01623208993213985,-0.07846747164460495,0.08736604772643052,-1.790051967002106e-05,5.304579956658931e-06,-4.024046236671351e-05,4.734172043142766e-07,-0.026016185525279824,0.007709549154444029,-0.058484521894007546,0.00068805319875303,0.012066405969846546,0.01100372281198608,3.160098013827805e-05,0.08736604961695887,0.10853589598643301,-0.00019857844857844965,False,False,True
0,4.66585976918397,0.4337119821943559,3.7831813832690986,5.515129315748821,0.6261286105124947,0.30917254086752305,0.09857964955609404,1.2429098321431475,0.4833901193762397,0.819279522054929,2.9145670765728937e-08,4.322586378088008,1.4611969733523218,0.16970547531003738,1.2831164676424545,1.8386307444758199,0.055124434389140164,17.825506174757514,-88.25,66.5,32.341545454545454,0.017036731156740523,32.31,32.37,-2.4679620780078748e-05,6.861812328284615e-06,-4.08285385906032e-05,-1.2689951183565858e-05,-0.009598037892080667,0.015308894378316824,-0.04477024176151894,0.012367580721742086,-2.117631571605783e-05,5.887768922502432e-06,-3.5032873119256466e-05,-1.088859569922836e-05,-0.03077714885191438,0.008557141995957482,-0.05091593670772422,-0.01582522357131969,0.015602292686035624,0.00910400042660861,0.0013444789954177934,0.044770270685120656,0.06334841628959277,-0.0002517863985754044,False,False,True
0,4.907763419529254,0.21844732295840613,4.554770319003167,5.5464368150765555,0.2680504986570479,0.1465436129072942,0.07779708106744145,0.6730715266457259,0.1999925346924781,0.5092261190079441,4.3475248290292257e-08,3.8117075705283963,1.9662327820254124,0.046235692157923794,1.845255590687445,2.016194824198034,-0.0323855285472018,11.64200411457462,-36.45,59.98,32.28387387387387,0.013959107237092342,32.27,32.33,-1.965032574578927e-05,5.171794878382329e-06,-4.689764567839556e-05,-1.1586477167603609e-05,0.0013904418850979525,0.010578985135738479,-0.05854066250509394,0.00961135788308094,-1.6860935815193083e-05,4.4376517021573815e-06,-4.024046236671351e-05,-9.941761290599808e-06,-0.024505279309434837,0.006449576442925939,-0.058484521894007546,-0.01444911717381363,0.008030063942797261,0.007021125933486513,3.2588510767599236e-05,0.058540694357826356,0.13114754098360654,-0.00010600210600210167,False,False,True
0,4.582055069051145,0.15254752993193882,4.369533766780936,5.070249493735633,0.1210986252662813,0.10044560754350844,0.011822784360635271,0.4407761198060458,0.09337810123606657,0.2607613920880917,8.363426040602917e-08,1.6051797572929898,1.9152305809746575,0.03663144699300707,1.8742823115443292,1.9906272734390091,0.06309389140271492,9.441932503663805,-33.72,114.97,32.280545454545454,0.011400656961300727,32.27,32.31,-1.679427535153404e-05,1.755353878518445e-06,-3.144900945492408e-05,-1.1034740159622484e-05,0.006371390451442543,0.002006278040411815,-0.006911943996114351,0.017183953113013295,-1.441030558109565e-05,1.5061790558353395e-06,-2.6984780645913764e-05,-9.468344086285531e-06,-0.02094359216294857,0.00218904447877724,-0.03921903232892271,-0.013761063975060599,0.006440993678013609,0.0017699869948398506,3.357604139692043e-05,0.017183963509087196,0.1809954751131222,-2.95741947117971e-05,False,False,True
0,4.142268948889363,0.17001272892902525,3.8465770158261257,4.429801882800612,0.03252759888721901,0.018694962413504535,0.0039593162122409705,0.07523424692986405,0.02040153257690539,0.06247536459656079,5.22699730165499e-08,0.4563020891548267,1.7366028820037565,0.09395801209693794,1.589096205864991,1.8738585118476976,-0.05869983041266257,7.718908360150665,-60.68,28.38,32.22117117117117,0.030413476042366043,32.16,32.27,-1.7813312462197362e-05,3.339146771344926e-06,-4.248374961454656e-05,-1.2138214175584734e-05,0.007163718832404773,0.0022163657312115424,-0.0014275686243352508,0.019246107687447875,-1.5284689015674378e-05,2.8651504365631383e-06,-3.64531247321993e-05,-1.0415178494914085e-05,-0.022214400054203755,0.004164140856776333,-0.05298009630398331,-0.01513717037256666,0.007166995219679189,0.00220586533794671,0.0006432854897290123,0.019246119235236517,0.14019219898247595,-0.0007758862758862845,False,False,True
0,3.5996542453999267,0.1382699443289143,3.3933758837443344,3.8461783641275127,0.019359292745218373,0.028384167548533016,0.0007246304387978416,0.11208542862076919,0.017073582492584588,0.07433128619142829,5.2405822931200774e-08,0.6871709759704996,1.4199084361562955,0.09695695649931155,1.287285947331333,1.5868296384850982,-0.03084841628959282,7.671796802107149,-35.2,32.68,32.156363636363636,0.010813453456059451,32.13,32.21,-1.7254264237147263e-05,1.5085732993220488e-06,-2.9242061422999583e-05,-1.2689951183565858e-05,0.007000510893482113,0.0014463239881201439,0.0006633245962506916,0.019246776028056044,-1.4804998431298842e-05,1.2944293087779278e-06,-2.5091111828656657e-05,-1.088859569922836e-05,-0.02151722927548361,0.0018812924801800837,-0.03646681953391059,-0.01582522357131969,0.007000554190956863,0.0014462944429319846,0.0006638697823607816,0.01924678679280289,0.05882352941176471,-0.00013191172824197702,False,False,True
0,3.1432745182888397,0.1279319849576498,2.943905600200461,3.4030724469201616,0.0062604485777198625,0.006461568327980589,0.0002388171993999671,0.03384863281327027,0.002615280911147611,0.010449734328555768,9.078288584762895e-08,0.06631055049948106,1.1556204084178112,0.0741560146915643,1.0408699695058345,1.2854093832020417,-0.0987386877828054,6.407268610811374,-48.25,26.16,32.131261261261265,0.01408526742361484,32.11,32.15,-1.7244902183844415e-05,5.152994087790325e-07,-1.9862532287320473e-05,-1.544863622347148e-05,0.006416766692174816,0.0006059156139470723,0.0020427726967976083,0.00892397302493608,-1.479696533394057e-05,4.421519708848591e-07,-1.7043019355313955e-05,-1.3255681720799745e-05,-0.02150555416464504,0.0006426130591154557,-0.02476991515510908,-0.01926548956508484,0.0064168074690045835,0.0006059102315709109,0.0020429051650184098,0.008924001483325552,0.08144796380090498,-0.000308178308178307,False,False,True
0,2.7778368050144677,0.09244559013855881,2.6284313116069784,2.946455174569935,0.003459243013851905,0.002683105848402709,0.00012412403083910932,0.010696369033677482,0.00249812247820658,0.009794235619813131,9.751454135538754e-08,0.0652022528421358,0.9362271456466769,0.05557116229037786,0.8485509516358826,1.0390278845469256,0.23291690220463537,9.005076583220966,-42.72,29.92,32.089636363636366,0.015558547179131533,32.07,32.11,-1.6763068507191218e-05,4.32571162058339e-07,-1.8759058271358226e-05,-1.4896899215490354e-05,0.00635819646122943,0.00040531927761459935,0.004793648810593385,0.007550539989862705,-1.4383528589901402e-05,3.711671090507001e-07,-1.6096184946685404e-05,-1.2782264516485466e-05,-0.020904675126820003,0.0005394453651598046,-0.02339380875760302,-0.018577436366331808,0.00635823501404785,0.00040531675402582026,0.00479371253922682,0.007550565504808783,0.11305822498586772,-0.0002099046502716197,False,False,True
0,2.5285115341298807,0.06575073686822995,2.4275003210849726,2.6444982525366783,0.013928253058602602,0.016456231713680988,3.157904716309962e-05,0.06468654570629848,0.013638482252540853,0.04607448247282895,7.718666972245103e-08,0.34388318622528136,0.7742770538722561,0.039969157486127664,0.7115367302224295,0.8470162393418873,-0.40658371040723973,12.448230298253389,-39.37,72.95,32.05144144144144,0.01891833390928925,32.0,32.09,-1.703207150542636e-05,3.2184397335541823e-06,-5.4070226782150183e-05,-6.620844095773492e-06,0.006733809176382813,0.0027806431193345897,-0.010340179858932418,0.025433239751359773,-1.4614346253995807e-05,2.7615779236714405e-06,-4.6394886022799105e-05,-5.681006451771319e-06,-0.021240139978248227,0.0040136110531515485,-0.06742921347779694,-0.00825663838503636,0.006974878895014335,0.002103332158343915,1.975061258642378e-05,0.025433253976203822,0.08597285067873305,-0.00035696735696737837,False,False,True
0,2.339970399921304,0.04917840079236994,2.274193961831786,2.4703248361964056,0.008213474474032452,0.009287406788855245,0.0002919628219322078,0.0465176144935447,0.004385169124876213,0.017189462434263357,9.655637134287076e-08,0.14165753011581705,0.6656709688223394,0.0273062696642638,0.6180244972750173,0.7107102572833026,0.24639909553420017,4.98869185978192,-15.93,20.35,31.998545454545457,0.014324955041725833,31.97,32.05,-1.6381289968036183e-05,5.278681146679086e-07,-1.82073212633771e-05,-1.4896899215490354e-05,0.006761173651642506,0.0006359808764401122,0.00410760063366487,0.00892530970615242,-1.4055944023233821e-05,4.5293653222058077e-07,-1.5622767742371126e-05,-1.2782264516485466e-05,-0.020428571582411997,0.0006582870816405544,-0.022705755558849988,-0.018577436366331808,0.006761208418875752,0.0006359779356490357,0.0041076624606087,0.008925334607220026,0.07235726399095534,-0.00026788089173411566,False,False,True
0,2.163493015249246,0.05410118912988625,2.078043554981471,2.275249099277283,0.0029718714834318554,0.0032129180212678277,7.8253649611542e-05,0.01631103621224514,0.001448850850548081,0.006525368143560589,1.0015706450317019e-07,0.04349963915718353,0.563570042299557,0.031233250903706714,0.5149101112027933,0.6171273380817075,0.03331447963800909,4.400305500606711,-18.53,13.77,31.977747747747745,0.0164418913247774,31.95,32.0,-1.6562096429623433e-05,6.662862738290326e-07,-1.9310795279339348e-05,-1.4896899215490354e-05,0.00649698455518177,0.0007527717126296753,0.0020427726967976083,0.008926646387368764,-1.4211084766610455e-05,5.717060491978249e-07,-1.656960215099968e-05,-1.2782264516485466e-05,-0.02065404941415204,0.0008309038461472699,-0.02408186195635605,-0.018577436366331808,0.006497022217368488,0.0007527634970666017,0.0020429051650184098,0.008926667969013757,0.12217194570135748,-0.0002937872937872966,False,False,True
0,1.9993245512704538,0.04775822112287439,1.9310690674014965,2.081459714445703,0.00219859552123087,0.0016267391030217,2.855527534571537e-05,0.005961005017511841,0.001796872730929428,0.0053723962231864075,1.2414649677369716e-07,0.022282404638950842,0.4643558719888595,0.029043712402547106,0.42181012988328254,0.5141533490672475,-0.03814479638009051,6.474637896320781,-25.16,23.94,31.959454545454545,0.01572915038423344,31.93,31.99,-1.6044062813532558e-05,3.6500798084916614e-07,-1.82073212633771e-05,-1.4896899215490354e-05,0.00676302625595051,0.0004357060073761265,0.0054823703499545864,0.008237924848007564,-1.3766586712785967e-05,3.131946114659088e-07,-1.5622767742371126e-05,-1.2782264516485466e-05,-0.02000802661441786,0.0004551895289979268,-0.022705755558849988,-0.018577436366331808,0.006763059459548576,0.000435703763880819,0.005482422843185364,0.008237949998323581,0.0497737556561086,-0.00014354304262560836,False,False,True
0,1.8551811562790184,0.04685891335337114,1.7697066131183665,1.933037210239965,0.002689212083836691,0.002238090200431212,0.0001329681234604152,0.007312960418059777,0.0018096317707388654,0.00819853925221128,8.359979790893701e-08,0.056885216450740114,0.3764848976098988,0.02843959677824992,0.3294271375941511,0.4213050209462297,0.027467495760316565,11.361197624198685,-50.09,83.78,31.945135135135136,0.012711116456569607,31.93,31.97,-1.6375479500453346e-05,2.3983197335803246e-06,-3.8069853550697574e-05,-7.172581103754615e-06,0.0063314240376562605,0.0014778400268323866,0.0013319959173667536,0.015111105088847979,-1.4050958359268864e-05,2.0578750507926807e-06,-3.2665787097685084e-05,-6.154423656085595e-06,-0.020421325538103222,0.0029908661925011053,-0.04747567071395907,-0.00894469158378939,0.0063314655432752396,0.0014778230842830671,0.001332859870188828,0.015111131688654538,0.09949123798756358,-2.211302211302164e-05,False,False,True
0,1.7076859421434616,0.037895476574957454,1.6472339137489687,1.7719935685969728,0.0017371728709023476,0.0015142104464228583,1.4413577921210581e-05,0.004790779547781211,0.001355400960309375,0.005641590939887476,1.4363475536911807e-07,0.043657643168562466,0.2875458604692083,0.023189406601180816,0.2506339924898182,0.3286617710761126,-0.1385803167420815,8.298327012326396,-45.04,61.83,31.923272727272728,0.01539147213596163,31.89,31.95,-1.5879914812289304e-05,8.251259839376448e-07,-1.9862532287320473e-05,-1.2138214175584734e-05,0.006630128831282164,0.0008423304268252652,0.0013553878386527495,0.01030141610365848,-1.3625739739104228e-05,7.0799825074665e-07,-1.7043019355313955e-05,-1.0415178494914085e-05,-0.01980332300438161,0.0010289876597184152,-0.02476991515510908,-0.01513717037256666,0.006630162836234441,0.0008423233536629122,0.0013555751981272198,0.01030143767834447,0.08597285067873305,-0.00017140409800959892,False,False,True
0,1.5840608621140062,0.03995256436084302,1.5140411433870307,1.6451413759579125,0.0033992570098064496,0.004062935559437061,6.0093406874706326e-05,0.01395818188064208,0.0025907922948072448,0.011128708475504014,8.168901438621035e-08,0.07881636432838637,0.21097865468903793,0.023677201580317653,0.17157472251424163,0.25000929976169817,0.03665912945166753,10.94324021589441,-66.12,29.79,31.903513513513513,0.020210197635156142,31.85,31.93,-1.7482893689056125e-05,3.908790373438979e-06,-3.420769449482971e-05,-1.2689951183565858e-05,0.005677613187779392,0.002815213689242287,-0.002786298166028857,0.01305763894231963,-1.5001173627779952e-05,3.353932370089169e-06,-2.935186666748515e-05,-1.088859569922836e-05,-0.02180234559619347,0.0048745247840829104,-0.04265929832268786,-0.01582522357131969,0.0060330810909164645,0.0019386853712308996,4.5426408948774694e-05,0.01305764964855312,0.08592425098925946,-0.0005036855036854929,False,False,True
0,0.4198790410555653,0.1489374612851392,0.3431961999604574,1.2742939023538606,0.397619791139073,0.27719483547634716,0.028793103434407667,0.8972862234318516,0.30483310677196507,0.7578198177706901,1.4153716421105855e-08,6.932110204076267,-0.8911144833327674,0.2507490859204384,-1.262960524509882,-0.5598409389222699,-0.266510180995475,32.06736467285054,-228.02,115.28,30.71218181818182,0.020515459294355658,30.69,30.75,-1.2161307240398426e-05,1.330642842985982e-05,-4.138027559858432e-05,6.069107087792367e-06,0.023916132389265203,0.004832160489311374,0.007555886714728075,0.039194972067028544,-1.0434993468397829e-05,1.1417563178737795e-05,-3.550629032357074e-05,5.2075892474570424e-06,-0.015165968979301798,0.016594012206367227,-0.05160398990647725,0.00756858518628333,0.023916142965789026,0.00483216649355238,0.007555899340771349,0.03919498080519807,0.09502262443438915,0.00045803935712191617,True,False,False
0,0.3886945796021817,0.00213942058385306,0.3853793582343995,0.3938336286962822,0.012680175296131219,0.013869246153910591,4.724892392284154e-05,0.07342603432129761,0.005451202746554641,0.009617476908587797,5.049305806803517e-08,0.048502103703957605,-0.5246028008888655,0.013946908181062645,-0.5860310626939078,-0.5111030193194355,0.12485585076314316,11.876025323399967,-35.46,38.18,30.787477477477477,0.031808188438841103,30.71,30.85,-2.758934694660364e-05,5.692611020793117e-07,-2.9242061422999583e-05,-2.6483376383093966e-05,0.027714426705092665,0.000977207934260775,0.02542254630162903,0.030242260395941096,-2.367300237500937e-05,4.884537298981984e-07,-2.5091111828656657e-05,-2.2724025807085277e-05,-0.034405773300541787,0.0007099069240335346,-0.03646681953391059,-0.03302655354014544,0.027714450619908605,0.0009772061791750314,0.025422575501324034,0.030242280529194237,0.11758055398530243,0.0008567918567918448,True,False,False
0,0.3899134553325749,0.011530952706342325,0.3772111011051879,0.4177160447378827,0.0030090017120755755,0.003489718400878164,1.0269725780447451e-05,0.013355444022548072,0.002579281242033496,0.00792532796342909,7.867263529699742e-08,0.04987150932786677,-0.5146659286058033,0.003547405606654247,-0.517670522010121,-0.5052053282978826,0.285746606334842,27.426060717131932,-136.42,140.49,30.841090909090912,0.011361083950213645,30.81,30.85,-2.5079068387666893e-05,4.875963375712955e-06,-4.027680158262207e-05,7.72431811173574e-06,0.02908345547176419,0.0034632971458607104,0.011686879269678941,0.03435854945751219,-2.1519061203344186e-05,4.183813875591615e-06,-3.455945591494219e-05,6.627840860399872e-06,-0.03127528691436001,0.006080654640039475,-0.050227883508971186,0.00963274478254242,0.029083474850813668,0.0034632980192061407,0.011686884357475513,0.03435858296167042,0.10407239819004525,-2.4795437639476676e-05,True,False,False
0,0.39950331838224945,0.005356020530977091,0.3904936305902455,0.4130818349901617,0.0004361264789786536,0.0010323570846072828,2.37618644680548e-07,0.005161939432389577,3.7745593953365376e-07,3.304025151597385e-07,1.0446166388150546e-07,1.63913789224366e-06,-0.5060974690530734,0.0026628099335441685,-0.510171092110643,-0.5022013414637002,-0.29398530243075166,10.010675466980924,-52.46,27.71,30.846396396396393,0.01792878806393448,30.81,30.89,-2.577827518984351e-05,3.1689463605782494e-07,-2.7586850399056214e-05,-2.427642835116947e-05,0.029965560849356927,0.0003825425596695685,0.028178100799682006,0.031620371815271664,-2.2119014668012454e-05,2.7191102009568105e-07,-2.367086021571383e-05,-2.083035698982817e-05,-0.03214724487597631,0.000395188948454086,-0.0344026599376515,-0.03027434074513332,0.02996558010996153,0.0003825420813166337,0.028178122407776094,0.03162038873930263,0.10401356698699829,-8.073008073003971e-06,True,False,False
0,0.3900683855891756,0.01245616512638613,0.3738688659796412,0.4614072197693201,0.002302688992089973,0.0043820581703609765,2.2145424204736076e-07,0.017046438359280037,0.0018763721999707245,0.013998857374331491,3.6903902655982534e-08,0.14044443633751424,-0.5136439544478741,0.004475957971766824,-0.5231278021881686,-0.5099119304142603,-0.15699660633484128,22.050834451997886,-102.67,84.61,30.85486486486487,0.011510063965138494,30.83,30.87,-1.5316943340344764e-05,1.3681469195362838e-05,-3.6966379534735316e-05,4.965633071830118e-06,0.02631504765446395,0.004547965855238239,0.010303421125482996,0.03436523286359391,-1.3142682817960025e-05,1.1739366407703722e-05,-3.1718952689056526e-05,4.260754838828489e-06,-0.019101259672622294,0.017061713293360408,-0.046099564316453005,0.00619247878877727,0.026315060262366154,0.00454797338483652,0.010303438463952225,0.03436525697943885,0.0904977375565611,-3.9663039663038434e-05,True,False,False
0,0.38584771595419093,0.0254593472359484,0.3612697730392638,0.4317874842745858,0.009602356077848791,0.013542468551127992,1.0167576597601697e-06,0.03559456823471744,0.00909204847054935,0.034292410034799034,1.463282648800628e-07,0.3140492542665083,-0.5237053218115556,0.002390704366344353,-0.5270602063459456,-0.5184312000598028,0.06404183154324504,19.12947300782415,-83.69,70.32,30.844181818181816,0.012219837847978613,30.83,30.87,-4.2048102067520745e-06,1.0943480027514681e-05,-2.2069480319244968e-05,1.1586477167603609e-05,0.01627234608014125,0.0076062852322826115,-0.003464994596267488,0.023397818801252048,-3.6079317935127605e-06,9.390038451566705e-06,-1.8936688172571062e-05,9.941761290599808e-06,-0.0052436814479628535,0.013647256445554536,-0.027522127950121197,0.01444911717381363,0.016287259134297336,0.007574278885958137,3.2588510767599236e-05,0.02339781920785731,0.10401356698699829,-8.601762730203856e-05,True,False,False
0,0.40308783106934626,0.013643808282926754,0.3602167067067356,0.42326347530419706,0.011090277801019113,0.010089089789845282,4.445253637745478e-05,0.02713987611794662,0.006747950416918564,0.022762841251118392,3.474427465177676e-08,0.19419713383260925,-0.5143760146508083,0.00938550010159775,-0.526287222152888,-0.5012861265942757,0.1445701357466067,42.08950701311926,-217.01,325.49,30.873963963963966,0.022533985616852794,30.83,30.91,-6.303782557250412e-08,6.298367938411494e-06,-2.5931639375112838e-05,8.276055119716864e-06,0.020559793826538303,0.004616543484641775,-0.0014075184060901114,0.028215527873739602,-5.408952221237781e-08,5.404306214759938e-06,-2.2250608602771e-05,7.101258064714148e-06,-7.861241297970124e-05,0.007854488903698506,-0.03233850034139241,0.010320797981295449,0.02056298335582019,0.004602307224078592,0.0014079330960618556,0.02821552847316848,0.0995475113122172,0.00033660933660935153,True,False,False
0,0.4022289542231728,0.0037073441092211356,0.39513991918882346,0.40978615001855767,0.0007051938067235673,0.0008810250302218774,4.9694437059413524e-06,0.00315292836994979,0.0005303148625624154,0.00322557767858794,1.0543337568692628e-07,0.030825439685368636,-0.5049088590103205,0.002359733629436051,-0.5083143286406352,-0.5013591906353847,-0.059117647058823504,17.184314971933826,-65.73,120.63,30.886,0.011746559129214858,30.87,30.91,9.305880983030048e-07,3.2954022689052283e-06,-7.172581103754615e-06,9.379529135679113e-06,0.02147632613420999,0.001178461893344163,0.014447780492597288,0.024773925198758106,7.98489877412428e-07,2.827615524549715e-06,-6.154423656085595e-06,8.048092473342702e-06,0.0011605060173538095,0.004109588516809818,-0.00894469158378939,0.01169690437880151,0.021476326614320584,0.0011784617724199063,0.014447780565762515,0.024773925582777846,0.11764705882352942,-9.160787142438322e-05,True,False,False
0,0.3865782069620164,0.004931865802898112,0.37875619282737577,0.39893520161764195,0.00017223861698134954,0.00024827787933713293,5.686917030659244e-07,0.000893199726720324,0.00013225214480540206,0.000992110095089352,1.1768495826138041e-07,0.008583162530719281,-0.5136940879630406,0.0025317682781783373,-0.5170936628878112,-0.5084356334194028,0.0666252119841715,24.929057439810993,-158.2,128.93,30.912342342342345,0.019769349782609802,30.87,30.95,-2.725954878415216e-05,8.107688798332084e-06,-4.910459371032006e-05,2.758685039905621e-06,0.021277969534380804,0.0054119591801277045,-0.006905260590032638,0.029552870515971722,-2.3390019501290104e-05,6.956791567057372e-06,-4.2134131183970615e-05,2.3670860215713828e-06,-0.03399449278584885,0.010110833842012914,-0.06123673468901967,0.0034402659937651497,0.02132548432645916,0.005221505889758283,2.66633269916721e-05,0.029552892871557077,0.06783493499152063,0.00040101790101789255,True,False,False
0,0.3716286577442993,0.00492051002279435,0.36364496083959097,0.38105669114372387,3.824293497073032e-07,7.131630117572435e-08,2.4819839979424694e-07,6.126986850426861e-07,2.7949430817839587e-07,8.57431384761567e-08,1.629853524952307e-07,5.834979837528713e-07,-0.5225401690203781,0.002945728571119591,-0.5261031229053815,-0.5171748619580362,-0.020978506787330372,7.232236165861202,-19.51,13.9,30.948363636363638,0.018200074237537122,30.91,30.99,-3.0024104942230747e-05,2.7972909320352044e-07,-3.144900945492408e-05,-2.9242061422999583e-05,0.02346952044953103,0.00026869001682257543,0.021979606945431194,0.02404643990412297,-2.576214322798447e-05,2.4002117558572283e-07,-2.6984780645913764e-05,-2.5091111828656657e-05,-0.037442080459292426,0.00034884101406797683,-0.03921903232892271,-0.03646681953391059,0.0234695538030103,0.00026868943774159846,0.021979646009302092,0.02404647077482778,0.11312217194570137,0.00036814462502535113,True,False,False
0,0.37156874112566535,0.002341110303756435,0.36474076213988577,0.37548925747029793,0.00025156450730165453,0.0005101214360092637,3.0797225752546547e-07,0.001967130387211421,0.00019351197462429996,0.002032364161315629,1.4432126840287609e-07,0.021412889590736596,-0.5229798140072247,0.001379054672230889,-0.5256202845444877,-0.5209648540094769,-0.022170717919728678,20.829509225167467,-135.16,122.76,30.961531531531527,0.013895597615346556,30.93,30.99,-2.518454752154564e-05,1.1993143758968417e-06,-3.420769449482971e-05,-2.2621217327226096e-05,0.030773105409467864,0.001688625709503514,0.01853867261105787,0.03437458963210831,-2.160956743358074e-05,1.0290701017293888e-06,-2.935186666748515e-05,-1.941010537688534e-05,-0.03140682649647456,0.0014956257795100572,-0.04265929832268786,-0.02821018114887423,0.0307731235176317,0.0016886225199160042,0.01853872056481759,0.03437460319358073,0.13566986998304126,-6.160056160056028e-05,True,False,False
0,0.3653840117917049,0.0016205063572134024,0.36235793125683896,0.36829565490689614,3.692813899828347e-07,3.239745398833062e-08,3.232979534790288e-07,4.3323478971452177e-07,2.802609957953591e-07,5.182378826942463e-08,1.9448921044562407e-07,4.260998024655394e-07,-0.5264174290705799,0.0009817091677104697,-0.5275110591385836,-0.5246416055072476,0.09507918552036207,8.063851447261749,-24.1,25.24,30.96490909090909,0.012832402690026218,30.93,30.99,-2.4020532227558307e-05,3.647172502125968e-07,-2.5931639375112838e-05,-2.2069480319244968e-05,0.032215224104180644,0.0003424472639491781,0.030244265417765613,0.03368787311457162,-2.061078566203535e-05,3.1294515043070073e-07,-2.2250608602771e-05,-1.8936688172571062e-05,-0.029955221048879085,0.00045482696831852,-0.03233850034139241,-0.027522127950121197,0.0322152396605206,0.00034244685312653474,0.030244283111835253,0.033687885665971945,0.11312217194570137,6.708292946824913e-05,True,False,False
0,0.3613703998296365,0.0023182590332505694,0.35453770423925685,0.3649629255394094,4.175843470355925e-07,1.2406487438454424e-07,2.693902628579224e-07,6.527200831371683e-07,3.439748359686521e-07,1.4621389413267e-07,1.8315933037917923e-07,7.740359731982359e-07,-0.5288504462792118,0.0013245713018514903,-0.5317004175212858,-0.5274562992667494,-0.17351045788581107,13.93277897743191,-82.22,104.31,30.97216216216216,0.009853970626135078,30.95,30.99,-2.6056325704600097e-05,3.91919427556614e-06,-3.9725064574640946e-05,-2.04142692953016e-05,0.028416521242772427,0.007258419498865525,0.0033988288760585287,0.03437726299454099,-2.2357595541599084e-05,3.362859424442514e-06,-3.408603871062791e-05,-1.7516436559628233e-05,-0.03249399258969818,0.0048874991505556235,-0.04953983031021816,-0.02545796835386211,0.028416548402407982,0.007258396180046273,0.0033991277450500152,0.034377274095019464,0.10401356698699829,-4.527904527904431e-05,True,False,False
