,EDA_mean,EDA_std,EDA_min,EDA_max,EDA_phasic_mean,EDA_phasic_std,EDA_phasic_min,EDA_phasic_max,EDA_smna_mean,EDA_smna_std,EDA_smna_min,EDA_smna_max,EDA_tonic_mean,EDA_tonic_std,EDA_tonic_min,EDA_tonic_max,BVP_mean,BVP_std,BVP_min,BVP_max,TEMP_mean,TEMP_std,TEMP_min,TEMP_max,ACC_x_mean,ACC_x_std,ACC_x_min,ACC_x_max,ACC_y_mean,ACC_y_std,ACC_y_min,ACC_y_max,ACC_z_mean,ACC_z_std,ACC_z_min,ACC_z_max,Resp_mean,Resp_std,Resp_min,Resp_max,net_acc_mean,net_acc_std,net_acc_min,net_acc_max,BVP_peak_freq,TEMP_slope,0,1,2
0,0.20890277307133195,0.006482947906543524,0.19790037982257053,0.22481422524759093,0.003573600419028737,0.005335256642001004,4.4043996233446634e-05,0.021846721096284893,0.0018167076379518063,0.009226496164368672,1.5998807682132687e-07,0.07931110910428887,-0.38976126974886904,0.00646108236674181,-0.40254710223364065,-0.38240361284590263,0.4146636517806665,80.2026418430924,-357.28,327.54,32.71218181818182,0.06282905040381949,32.61,32.81,-2.4186552639462138e-05,7.548488564512764e-06,-7.06223370215839e-05,8.827792127697988e-06,0.01073126237275202,0.019189558625008485,-0.024797985460652275,0.04885044043024878,-2.075323925518874e-05,6.476970551760012e-06,-6.05974021522274e-05,7.574675269028425e-06,-0.030162259681083048,0.009413473498122429,-0.08807080944038784,0.01100885118004848,0.018987088355921902,0.011073070252982327,5.431418461266541e-05,0.04885044045188779,0.16732617297908423,0.0018556003877105121,False,True,False
0,0.19462254592723746,0.0035617235271335358,0.18850587179533587,0.20598723970791377,0.0021016391257130604,0.0021542504174177084,5.072864353142216e-06,0.009086812404318878,0.0009493747551636265,0.005086549782588828,1.3270803522758e-07,0.04378596799152738,-0.40881102583425927,0.0024813061595736533,-0.4141251173089775,-0.40279173839875626,-1.6281052036199097,68.81068791172072,-467.49,160.9,32.824684684684684,0.011186015605519644,32.81,32.84,-2.8934986074666197e-05,8.215372182413942e-06,-4.138027559858432e-05,-7.172581103754615e-06,-0.01618717675465803,0.011798893114489376,-0.044047434851141,0.036454121062355335,-2.4827626235305272e-05,7.0491891512427685e-06,-3.550629032357074e-05,-6.154423656085595e-06,-0.03608387589840551,0.010245122272548299,-0.05160398990647725,-0.00894469158378939,0.01731959579611034,0.010061251045036962,5.431418461266541e-05,0.044047436795024576,0.13574660633484165,0.00014364689364688594,False,True,False
0,0.18374745617982227,0.0032767395194176724,0.17747014341374323,0.19040069352128786,0.0005294017252654129,0.0005812735706134102,2.680744967091739e-06,0.001965904986598467,0.0004088710088910275,0.002064709425558524,1.1987479852162974e-07,0.017295774091286773,-0.4231767073171094,0.00402517227780831,-0.4269750861949189,-0.4143207751366641,1.1903789592760181,48.24483162378666,-156.03,219.12,32.88336363636364,0.02164251985223975,32.84,32.93,-2.6031501277009876e-05,7.799845964024182e-06,-3.586290551877307e-05,-1.3793425199528107e-05,-0.02544435756716294,0.013488591726669661,-0.041308588868292306,-0.006921969105236921,-2.2336294974592584e-05,6.6926474333885e-06,-3.0772118280427976e-05,-1.1835430107856916e-05,-0.03246303485700382,0.009726933099820905,-0.04472345791894695,-0.01720132996882575,0.02544441140028886,0.013488537640362798,0.006922115860941215,0.04130859810617957,0.12217194570135748,0.0005817009670220496,False,True,False
0,0.17829557727374895,0.0017028679486074012,0.1754316852132494,0.1819071763412205,5.8790830534383195e-05,0.0001613575230777013,4.357128248842316e-07,0.000636948261279472,6.314659890780647e-05,0.0006515486683841295,2.8749138315490875e-07,0.006865658562895287,-0.43067479765032673,0.002222057458431035,-0.4347933019472171,-0.426992569909355,-1.2194460146975694,40.96495973451448,-106.65,119.13,32.89666666666666,0.012160542252661128,32.87,32.91,-1.846791569200547e-05,1.3227028139722615e-06,-2.2621217327226096e-05,-1.6000373231452603e-05,-0.03765149499828532,0.0011766484027884458,-0.039927135745920876,-0.03305261882386412,-1.5846370444521823e-05,1.134943386561442e-06,-1.941010537688534e-05,-1.372909892511402e-05,-0.023030734357809047,0.001649499469835063,-0.02821018114887423,-0.01995354276383787,0.037651502944286645,0.0011766470618114924,0.03305263098485972,0.03992714170281928,0.13114754098360654,-0.00014759564759563593,False,True,False
0,0.17067238536895837,0.0024021909917250586,0.16617900816975223,0.17738332509269752,0.0003398684248612257,0.0004378727570003166,2.1214984530784244e-06,0.0016187088478024471,0.00024194886118897378,0.001609195650368789,1.518152242055437e-07,0.012705223476489134,-0.4418826058321349,0.003237837603702927,-0.44597447234860416,-0.4349199416865806,-0.1867081447963801,39.67700412711802,-114.8,103.91,32.89727272727273,0.014520412137419256,32.87,32.93,-1.7967652698824214e-05,1.2295500094027922e-06,-2.2621217327226096e-05,-1.3793425199528107e-05,-0.03802347235898865,0.0010072715620905333,-0.041991963682788146,-0.03305261882386412,-1.5417120449999314e-05,1.0550137467595367e-06,-1.941010537688534e-05,-1.1835430107856916e-05,-0.022406872721382608,0.0015333316503310433,-0.02821018114887423,-0.01720132996882575,0.03802347979187697,0.001007270517258414,0.03305263098485972,0.04199196973066646,0.13574660633484165,0.0001976421792935489,False,True,False
0,0.16303121782637336,0.002354980919225173,0.15916016138274813,0.16817842841071157,1.5866805421543045e-06,1.5776651095682112e-06,5.021613513982152e-07,9.448557911740698e-06,7.118726520035041e-07,5.74591314313093e-07,2.681969791580669e-07,3.942467143456679e-06,-0.4526383054919967,0.003228377941599455,-0.4574487890096597,-0.44611007649206724,0.011876766534765078,37.59491012026586,-106.34,71.99,32.89792792792793,0.011210151010019992,32.89,32.93,-1.7812866750883805e-05,1.1772632554235156e-06,-2.1517743311263846e-05,-1.434516220750923e-05,-0.03812758251754305,0.0008591674933048725,-0.040614520604065736,-0.0344260518589375,-1.528430657367585e-05,1.0101491671981375e-06,-1.8463270968256787e-05,-1.230884731217119e-05,-0.022213844222184927,0.0014681265475240102,-0.02683407475136817,-0.01788938316757878,0.038127589795194504,0.0008591665339138259,0.034426061262549094,0.040614526076247416,0.12210288298473713,0.00015970515970513852,False,True,False
0,0.15739508039308225,0.0016574525554216824,0.1520332645041194,0.16091791391870164,0.0001325865739467633,0.0002662944726917878,4.686570701548611e-07,0.0010226853316861997,0.00010232552766161151,0.0009889775815292462,1.6708006035735107e-07,0.010350442964143324,-0.460940250043202,0.0019152090981366255,-0.4631223284813417,-0.45750696385707607,0.2841968325791858,39.77280520644139,-131.64,86.64,32.89090909090909,0.011616616898081269,32.87,32.91,-1.678304088757062e-05,9.41120621369312e-07,-2.2621217327226096e-05,-1.2689951183565858e-05,-0.0389241342898489,0.000736970267293677,-0.04130391048403511,-0.03373866700079264,-1.4400665864265721e-05,8.075272947911758e-07,-1.941010537688534e-05,-1.088859569922836e-05,-0.020929582029942283,0.0011736407827980025,-0.02821018114887423,-0.01582522357131969,0.03892414060508894,0.0007369695576185315,0.033738677152121296,0.04130391663266082,0.12669683257918554,-6.518945968488006e-05,False,True,False
0,0.1540450717286901,0.001925636763967568,0.1474143227288407,0.15715773885312037,2.7728854169454232e-06,3.2909829610298264e-06,4.6652319897962805e-07,1.3305849879641078e-05,1.7865858730334018e-06,8.014153956467048e-06,1.959248637346107e-07,7.686832661084057e-05,-0.4656612867124336,0.0021822339737796654,-0.46948858632714285,-0.4620663855518455,0.15332956472583367,36.62654786073974,-113.91,69.53,32.89126126126126,0.01184115451351465,32.87,32.91,-1.779647980771658e-05,1.1839094840800839e-06,-2.04142692953016e-05,-1.4896899215490354e-05,-0.03808217265079711,0.0009334602368904471,-0.04061652562589025,-0.035801489915835386,-1.5270245778932587e-05,1.0158519548384649e-06,-1.7516436559628233e-05,-1.2782264516485466e-05,-0.022193408600682477,0.0014764148421655624,-0.02545796835386211,-0.018577436366331808,0.03808217992693331,0.0009334592414773543,0.03580149844885127,0.04061653228847924,0.12210288298473713,-8.073008073007015e-05,False,True,False
0,0.149129074561366,0.0015743840969783408,0.14444230550054324,0.15253190838960232,1.2012411944057451e-05,2.239299883017395e-05,5.118453095981024e-07,8.709037797611992e-05,9.310849922073808e-06,8.742013747781941e-05,2.6379632646500873e-07,0.0009176652964390915,-0.472867704500218,0.0017705123363986309,-0.4755165160851868,-0.46958089535137015,-0.22945135746606332,35.578925271400784,-118.22,61.85,32.89581818181818,0.01308979700586241,32.87,32.91,-1.8390817508112907e-05,6.766857834608786e-07,-2.04142692953016e-05,-1.6552110239433728e-05,-0.03763792795667059,0.0005975800565548334,-0.03924175590960054,-0.035801489915835386,-1.5780216450593297e-05,5.806293345764199e-07,-1.7516436559628233e-05,-1.4202516129428297e-05,-0.02293458773128595,0.0008438727348825704,-0.02545796835386211,-0.020641595962590898,0.0376379357776943,0.0005975794678667118,0.03580149844885127,0.03924176369453985,0.12217194570135748,4.327930933432686e-05,False,True,False
0,0.14554340304624883,0.0016740769022458928,0.14113794205167632,0.14901226563678313,7.801130358773787e-05,0.00016283570677409211,6.025858409239995e-07,0.0006250042385600432,6.336117147237384e-05,0.0006423296407101197,2.2365152747838568e-07,0.006768494424527168,-0.478152981248155,0.0021607447023825744,-0.4815795357947459,-0.475526370271815,0.167850678733032,33.029402281485524,-80.09,64.38,32.90009009009009,0.010044944046676454,32.89,32.91,-1.8544355182279598e-05,3.965507886069633e-07,-2.0966006303282724e-05,-1.7655584255395975e-05,-0.0375143577679691,0.00047018378419036867,-0.03924175590960054,-0.033739335341400806,-1.591195924726899e-05,3.402598756205839e-07,-1.7989853763942512e-05,-1.514935053805685e-05,-0.02312605954903849,0.0004945255341262018,-0.02614602155261514,-0.02201770236009696,0.03751436573391903,0.00047018344481382466,0.03373934606431248,0.03924176369453985,0.12217194570135748,-3.15900315900253e-05,False,True,False
0,0.14167350195911,0.0014193154547984422,0.13857653326457398,0.14522438752116557,0.00012469939326024664,0.00024011776550783735,8.177306503120523e-07,0.0009306782769081335,9.27519324085507e-05,0.0009019070313571415,1.8338334196532982e-07,0.009440935320530851,-0.4836380007806977,0.0016546199996563815,-0.4856207635235915,-0.4815409553808769,-0.31431317128321096,32.25940861730915,-88.0,49.87,32.89745454545454,0.01207289508208459,32.87,32.93,-1.8631110209552647e-05,4.099410763857476e-07,-1.9862532287320473e-05,-1.7655584255395975e-05,-0.03758217850058907,0.00043907285497866836,-0.03855370271084751,-0.036489543114588414,-1.5986399282788994e-05,3.517493942018943e-07,-1.7043019355313955e-05,-1.514935053805685e-05,-0.023234248909475903,0.0005112241245871329,-0.02476991515510908,-0.02201770236009696,0.037582186526565364,0.00043907252124740184,0.036489551486704304,0.03855371063472163,0.12210288298473713,6.482879877374048e-05,False,True,False
0,0.1401236523629428,0.0011258027106771887,0.1369013551302111,0.14309078559386026,5.090125722198697e-05,6.773161906944412e-05,1.3379525295769885e-06,0.00025797688556663514,3.933053188867027e-05,0.00029725033604466105,2.5272315427003755e-07,0.002783889869155678,-0.48598878463168815,0.000579736690135578,-0.48740134417071124,-0.48491021037933957,0.21683257918552049,31.059250482843193,-83.1,52.31,32.90747747747747,0.010485355022251478,32.87,32.93,-1.7732353092479323e-05,4.432468532757748e-07,-1.9310795279339348e-05,-1.6552110239433728e-05,-0.03829015819921831,0.0003997327717391397,-0.03924175590960054,-0.03648887477398024,-1.5215221936394697e-05,3.8032737167070044e-07,-1.656960215099968e-05,-1.4202516129428297e-05,-0.022113438268973228,0.0005527586709283154,-0.02408186195635605,-0.020641595962590898,0.03829016533575849,0.00039973247307531116,0.03648888266100554,0.03924176369453985,0.12217194570135748,0.00011021411021407949,False,True,False
0,0.1368203463941578,0.0012300347986391434,0.1337655974349787,0.13913555170542347,3.078778145753774e-05,5.982959436633514e-05,6.686480702937679e-07,0.00023226711605628522,2.3242846430246418e-05,0.00023643049259174787,2.8753507071965756e-07,0.002491701948446645,-0.4906474572516252,0.0012356580050709297,-0.49188265272845044,-0.48748143381283593,-0.23041831543244792,34.659359991291076,-92.78,53.47,32.91594594594595,0.016089430657106427,32.87,32.95,-1.8019044905851337e-05,2.997644775607885e-07,-1.8759058271358226e-05,-1.7103847247414853e-05,-0.03807389017894495,0.0003439456675740206,-0.03924041922838419,-0.0371762596321251,-1.5461217464740717e-05,2.5721251042926736e-07,-1.6096184946685404e-05,-1.4675933333742575e-05,-0.022470962263908274,0.0003738264873928616,-0.02339380875760302,-0.02132964916134393,0.03807389758636459,0.00034394542372189607,0.03717626691126546,0.039240426124620774,0.12210288298473713,4.334854334856321e-05,False,True,False
0,0.13350977539946338,0.003464809616006593,0.12547433682934184,0.1373672386539746,0.0008789555387150238,0.0013232862389633785,7.171533817064603e-07,0.00467841693484898,0.0006818641887535486,0.0031507194458010868,1.9786911586994194e-07,0.021668966754676385,-0.4963102333422068,0.0046177673945819704,-0.5059693988097991,-0.49193892858796073,0.19296945701357426,39.77003102736497,-148.83,129.85,32.925636363636364,0.008298034776438375,32.91,32.93,-1.6903499306733923e-05,2.6781182907122415e-06,-2.372469134318834e-05,-6.069107087792367e-06,-0.03692394454883316,0.002152396977322937,-0.04199664206704534,-0.022031069172260383,-1.450402505027551e-05,2.2979558298095784e-06,-2.035693978551389e-05,-5.2075892474570424e-06,-0.021079801789398542,0.003339793832764968,-0.029586287546380288,-0.00756858518628333,0.036923951380729694,0.0021523979105202,0.022031073970370848,0.04199665115358344,0.13122171945701358,4.90498839122769e-05,False,True,False
0,0.12780952745280777,0.0014945188230159536,0.12306099412538864,0.13185204648606424,0.0005728705665912923,0.0010039250587912968,6.194202921529256e-07,0.003603076997218605,0.00043496623027198844,0.00321511137850604,1.3669840338154104e-07,0.03203493849990862,-0.5043400906423117,0.001304105962864393,-0.5064275980460247,-0.5026298431183011,-0.1280553985302433,48.96556272620804,-255.01,133.66,32.93432432432432,0.009873897786279133,32.91,32.95,-1.3440787858454198e-05,2.3411080018666037e-06,-2.04142692953016e-05,-1.655211023943373e-06,-0.03975913698701972,0.0033108444014681142,-0.05299145809432222,-0.019975598003907524,-1.1532850107361932e-05,2.008784600650509e-06,-1.7516436559628233e-05,-1.4202516129428298e-06,-0.016761567460572967,0.002919519310848438,-0.02545796835386211,-0.00206415959625909,0.03975914115245951,0.003310843182582111,0.019975612410915812,0.05299145953556731,0.14019219898247595,7.651807651808848e-05,False,True,False
0,0.12780270859128695,0.0010909993669236174,0.12465033001893794,0.1301528613471683,0.00012445066408582414,0.00024961721634475986,4.819951184089808e-07,0.0009600715092805074,9.572542981517263e-05,0.000992721052199999,2.3203885225232812e-07,0.010412786025216648,-0.5038234236801015,0.0007492867641241616,-0.504973923923384,-0.502850462175203,0.27769230769230746,34.08934020581186,-89.79,78.19,32.949636363636365,0.015558547179131873,32.91,32.97,-1.3247305423528691e-05,7.71142747650784e-07,-1.7655584255395975e-05,-1.1034740159622484e-05,-0.04056059355843044,0.0005572134558178917,-0.04267533849728397,-0.03854768764537396,-1.1366832761957602e-05,6.616780068023888e-07,-1.514935053805685e-05,-9.468344086285531e-06,-0.016520281836575862,0.000961666929245527,-0.02201770236009696,-0.013761063975060599,0.04056059733137726,0.0005572131516044855,0.03854769193014416,0.0426753420641875,0.12669683257918554,0.00012046074431397953,False,True,False
0,0.12657607093561282,0.0012627183491832484,0.12309396397496991,0.12982360156597922,0.00021709218861064013,0.0003466716678901347,5.099551469101227e-07,0.0010803209487097523,0.00020811588975741841,0.001496678657703385,2.790526429151483e-07,0.011755522566407809,-0.5057663151537454,0.0004803963846645444,-0.5071287845573766,-0.5048831084888128,-0.5917138009049769,35.98277292736436,-116.21,56.93,32.968378378378375,0.00720360270225112,32.95,32.99,-1.2125731437847603e-05,6.810849477106387e-07,-1.4896899215490354e-05,-9.931266143660237e-06,-0.04098031728292423,0.0005620974018598231,-0.046116941172265453,-0.038545682623549446,-1.0404467698436387e-05,5.844040315974901e-07,-1.2782264516485466e-05,-8.521509677656977e-06,-0.015121603558115234,0.0008493587889084962,-0.018577436366331808,-0.01238495757755454,0.04098032040917714,0.0005620972781851677,0.03854568594184812,0.04611694504601962,0.11764705882352942,2.3166023166028657e-05,False,True,False
0,0.12516875939843067,0.0011739566895782952,0.12124590098030394,0.12749348592594084,5.469080472260792e-05,0.00012903947800139715,5.799481333093604e-07,0.0006637180561634028,6.049507660646389e-07,3.4112565101277504e-07,1.9822211937560019e-07,2.0596389021538403e-06,-0.5076108177276024,0.000290224632862474,-0.5080363163590076,-0.5071784167638064,0.4549067269643864,37.11403346269021,-91.3,111.36,32.97981818181818,0.014525006477714797,32.95,33.0,-1.1694954274257528e-05,7.596538761855609e-07,-1.3793425199528107e-05,-9.931266143660237e-06,-0.04119628851911489,0.00043405719371063413,-0.0419859486173146,-0.039921120680447335,-1.0034839927380242e-05,6.518199959546219e-07,-1.1835430107856916e-05,-8.521509677656977e-06,-0.014584395429839648,0.000947339532954612,-0.01720132996882575,-0.01238495757755454,0.04119629141667486,0.00043405688618940717,0.03992112359976746,0.04198595166371685,0.11305822498586772,0.00025823321236165974,False,True,False
0,0.12534795272419613,0.0011183960501595397,0.12120529524438997,0.12703328841278352,3.3872937760464825e-05,6.930364464113713e-05,5.345481361779735e-07,0.00026629918677737287,2.66289006250001e-05,0.000267732769763794,2.1387811570308234e-07,0.0028214745875532496,-0.5073327940825213,0.00046792651322320375,-0.5084570007567093,-0.5068826098003606,0.16897058823529396,37.35992909743698,-91.72,74.28,32.984234234234236,0.011245164580998791,32.97,33.0,-1.1135850335293235e-05,7.012277022625576e-07,-1.2689951183565858e-05,-8.827792127697988e-06,-0.04138930376203995,0.00043093657576063284,-0.04404609816992466,-0.04060583217615951,-9.555101537754888e-06,6.016874952934484e-07,-1.088859569922836e-05,-7.574675269028425e-06,-0.013887155172117152,0.0008744781600956094,-0.01582522357131969,-0.01100885118004848,0.04138930637506237,0.0004309364102890122,0.0406058338422455,0.0440460997058793,0.12217194570135748,-1.965601965602946e-05,False,True,False
0,0.12505204063155254,0.0011551300097171365,0.1207906209055708,0.1276270342038513,7.398191267127462e-05,0.00014671906674576233,6.401186555279074e-07,0.0005650329399484234,5.632787061709503e-05,0.0005745099555976065,2.6660291433972406e-07,0.006026578890014423,-0.5078233638848738,0.0003642011225747429,-0.5084778166770638,-0.5073758981080616,-0.7517806670435274,35.71301378430838,-108.46,55.55,32.993454545454554,0.008176534296035397,32.97,33.0,-1.1140219293501232e-05,8.086304208229772e-07,-1.6000373231452603e-05,-9.931266143660237e-06,-0.0414578030379161,0.00042915161444930433,-0.04267266513485129,-0.03923574084412699,-9.558850316522083e-06,6.938442548022584e-07,-1.372909892511402e-05,-8.521509677656977e-06,-0.013892603557175151,0.001008416581827864,-0.01995354276383787,-0.01238495757755454,0.041457805653234696,0.0004291513338006517,0.0392357450537578,0.04267266761202284,0.12662521198417184,5.842706760138071e-05,False,True,False
0,0.12360320176672154,0.0028525848083735647,0.11548878761375993,0.12666826969050657,0.00022316202618809382,0.0003892262702925913,4.4402172608524544e-07,0.0014560261641559504,0.00017334387315638176,0.0012724270370778473,1.7444938565577828e-07,0.011314401356757675,-0.5099543807377209,0.003609671456737653,-0.5202431048868905,-0.5073101324798521,0.5314253393665157,34.905112464779656,-105.36,81.83,33.0063963963964,0.012918822968676236,32.99,33.03,-1.1351801698145575e-05,1.560997682466865e-06,-2.04142692953016e-05,-6.620844095773492e-06,-0.03812364768045931,0.005567860957888019,-0.04474016643415123,-0.025474008528458224,-9.740398316819074e-06,1.3394119808613788e-06,-1.7516436559628233e-05,-5.681006451771319e-06,-0.014156461062126818,0.0019466692158234525,-0.02545796835386211,-0.00825663838503636,0.03812365078267864,0.005567860187319463,0.025474014503913702,0.04474017012586717,0.11764705882352942,0.0002589505089505165,False,True,False
0,0.11707833262696343,0.002499199082306074,0.11057008676966695,0.12122597478507281,0.00023707023161674776,0.00047675678615337347,5.448522244245448e-07,0.0018279828935748987,0.00018068625878584654,0.0018808717824749688,2.677055444722545e-07,0.019728033351245542,-0.5195885291542933,0.0035719975796808536,-0.5247180240748337,-0.5152056223466439,-0.15801470588235275,34.831802543637416,-106.08,150.86,33.028,0.01846394950146439,33.0,33.05,-1.1122119323782393e-05,2.5632352431420516e-06,-2.2621217327226096e-05,-3.310422047886746e-06,-0.03579535235600894,0.007100644025515663,-0.04818110076852455,-0.01927484633359924,-9.543319661629422e-06,2.199380583964108e-06,-1.941010537688534e-05,-2.8405032258856597e-06,-0.013870031676220581,0.0031965269370887047,-0.02821018114887423,-0.00412831919251818,0.035795355496277555,0.007100644121177238,0.019274849020867294,0.04818110447632056,0.14932126696832582,0.0002345197574555239,False,True,False
0,0.11999496813014283,0.0011102906575802423,0.11660713497086939,0.12270680288306875,7.923843383230292e-07,1.8954983616000615e-07,5.074720959544364e-07,1.1990041636848628e-06,5.699889872378482e-07,2.531836354869015e-07,2.627192182050761e-07,1.5911907463622432e-06,-0.5150964793208255,0.00045831746827339334,-0.5159316646572438,-0.514386174440389,0.3942566421707184,38.514487471114094,-106.68,79.99,33.042072072072074,0.011210151010019896,33.03,33.07,-9.876404158685841e-06,8.163464138608894e-07,-1.3241688191546983e-05,-6.620844095773492e-06,-0.04222499924453013,0.0004348782899748677,-0.044737493071718544,-0.04060449549494317,-8.47443542457262e-06,7.004649523441601e-07,-1.1362012903542639e-05,-5.681006451771319e-06,-0.0123165409883,0.0010180389446828007,-0.01651327677007272,-0.00825663838503636,0.042225001265147236,0.00043487814501709526,0.040604496770582255,0.044737495676749,0.11758055398530243,-7.371007370996053e-06,False,True,False
0,0.1206276797782597,0.0011927868333567848,0.11676394980384049,0.12302786891213734,2.174327272499829e-05,9.355995304273902e-05,4.372930906493806e-07,0.00052508092389585,5.309330363248583e-05,0.0005220090279430178,1.8178651281229008e-07,0.005475700647989542,-0.5141127113507274,0.0007997151191316474,-0.5159052078692292,-0.5133206067245091,0.13722850678733012,40.04959292414527,-102.83,97.11,33.05727272727273,0.011080116161175617,33.03,33.07,-9.749018172698148e-06,4.889786221636674e-07,-1.2138214175584734e-05,-7.172581103754615e-06,-0.04227571060247644,0.00042570843053336017,-0.044737493071718544,-0.03991844731801465,-8.36513204908258e-06,4.1956745501126503e-07,-1.0415178494914085e-05,-6.154423656085595e-06,-0.01215768208656372,0.0006097892659632337,-0.01513717037256666,-0.00894469158378939,0.0422757125593833,0.0004257084001929515,0.03991844923125735,0.044737495676749,0.11312217194570137,-1.875436737822634e-05,False,True,False
0,0.12177765052005522,0.0010783084661689615,0.11877257720990134,0.12406681538085794,0.00014962449389387583,0.0002653309240057788,5.076784312609648e-07,0.0008865385963765275,0.00011496376356291776,0.0008014589256658891,2.0557308241244974e-07,0.008153793875011802,-0.5126857307977623,0.000622922304716924,-0.5139944639400256,-0.5118824374790489,-0.595404183154324,38.338784874361096,-100.52,76.52,33.0627927927928,0.011051217223881873,33.03,33.07,-9.491873775313278e-06,6.18423162699589e-07,-1.434516220750923e-05,-8.276055119716864e-06,-0.04237891842951669,0.0003952060218801147,-0.043358713311779803,-0.039924462383488186,-8.144489641641989e-06,5.30637170487662e-07,-1.230884731217119e-05,-7.101258064714148e-06,-0.011837005708864343,0.0007712153238286579,-0.01788938316757878,-0.010320797981295449,0.04237892028451688,0.0003952058519589087,0.039924466858080446,0.04335871507321764,0.12210288298473713,3.86100386100323e-05,False,True,False
0,0.12079685903302845,0.0012076153261407752,0.11682979381242763,0.12333748946652345,4.8266528041044546e-05,0.00011210200839044018,5.925454318868505e-07,0.0005741273158482701,9.732144819479495e-07,1.1887313543189686e-06,2.0296412255174168e-07,6.348897382195585e-06,-0.5139125010070065,0.0006493701668658687,-0.514729082512125,-0.5129517867343447,-0.03853506787330259,35.82663898805515,-91.62,59.78,33.069272727272725,0.013794633374069677,33.05,33.09,-9.488128953992141e-06,3.4424990702480436e-07,-1.1034740159622484e-05,-8.276055119716864e-06,-0.04240537747783564,0.0003757457704130211,-0.04335938165238797,-0.04060716885737585,-8.14127640269868e-06,2.9538317388836086e-07,-9.468344086285531e-06,-7.101258064714148e-06,-0.011832335664528917,0.0004293028132471279,-0.013761063975060599,-0.010320797981295449,0.04240537932365618,0.000375745723869798,0.04060717096594651,0.04335938362711828,0.11312217194570137,9.232919324663887e-05,False,True,False
0,0.1209142309262981,0.0009481343804208706,0.11799310482944626,0.12295071818189042,8.274821233978362e-07,2.859551270781222e-07,5.274392320403504e-07,1.728350872957943e-06,5.697570282306529e-07,3.1088547346009574e-07,2.607932877321592e-07,1.9102887637394625e-06,-0.5136887558865524,0.00041541067352527115,-0.5145102549187079,-0.5129146203674639,0.3744092707744485,36.40575543112841,-96.99,59.45,33.06639639639639,0.013266005276154198,33.05,33.09,-1.0486743741525978e-05,5.82095919920157e-07,-1.2689951183565858e-05,-8.827792127697988e-06,-0.04205780694455809,0.00040641463834555845,-0.04336071833360432,-0.03991844731801465,-8.998136490136097e-06,4.994666282396192e-07,-1.088859569922836e-05,-7.574675269028425e-06,-0.013077675543756743,0.0007259128060807077,-0.01582522357131969,-0.01100885118004848,0.042057809222589254,0.0004064145249065421,0.03991844923125735,0.04336072077146781,0.12662521198417184,-1.3689013689015828e-05,False,True,False
0,0.1212938635817266,0.0011352370704263489,0.11739347685679913,0.12387233820279235,7.789965524580258e-07,1.674554076468481e-07,5.194343771343299e-07,1.148346055909463e-06,5.982542627299009e-07,3.003226863968425e-07,2.7431657864667054e-07,2.2413306381303368e-06,-0.5132253477178874,0.00032390820820386173,-0.5139392819450429,-0.5128789849345841,-0.24084841628959278,37.44562082732718,-93.73,57.01,33.07290909090909,0.014034391215178866,33.03,33.09,-1.087308870592666e-05,3.508784788227057e-07,-1.2689951183565858e-05,-8.827792127697988e-06,-0.04198441612137256,0.00026189779523430406,-0.04335938165238797,-0.040608505538592195,-9.329639271899334e-06,3.010708110846436e-07,-1.088859569922836e-05,-7.574675269028425e-06,-0.013559473727914632,0.00043756908859704356,-0.01582522357131969,-0.01100885118004848,0.0419844185687259,0.00026189775382847954,0.040608508141680155,0.04335938362711828,0.12217194570135748,0.00015292022631473512,False,True,False
0,0.12051864775960931,0.0012068106025184561,0.11613255367632368,0.12288873593663674,0.0002417419513832259,0.00045854276126026076,4.342465824927053e-07,0.0017862703439029569,0.00018844311042656248,0.0018459111710650742,1.9463775685747682e-07,0.01941562123971599,-0.5145381184205795,0.00042296764544611274,-0.5152033070825697,-0.5139179664678224,0.1615441176470591,35.17643783674005,-86.97,53.23,33.07810810810811,0.012469126492226616,33.05,33.11,-1.0863726652623809e-05,3.671811231404719e-07,-1.2689951183565858e-05,-9.931266143660237e-06,-0.04199140984725452,0.00021075252120385498,-0.04267333347545946,-0.04129589039673705,-9.321606174541061e-06,3.1505927331248626e-07,-1.088859569922836e-05,-8.521509677656977e-06,-0.013547798617076064,0.0004578995837581652,-0.01582522357131969,-0.01238495757755454,0.04199141229019416,0.00021075247786555797,0.04129589270691922,0.04267333620649831,0.11764705882352942,5.563355563355822e-05,False,True,False
0,0.1207046184647153,0.0010799234596782004,0.11771916724362563,0.12348852934107817,5.2382551052390195e-05,0.00011861043466284333,5.187314849439843e-07,0.0004542689275458642,4.5472355848702705e-05,0.00046959508769621244,2.9924048926956257e-07,0.004925827559223989,-0.514093749846559,0.0004738390179167694,-0.5147832240459121,-0.5133451522942697,0.07959864330130027,35.098566646867695,-86.49,64.39,33.07054545454546,0.013669517661362584,33.05,33.09,-1.1413591249944365e-05,4.000419134167136e-07,-1.2689951183565858e-05,-1.0483003151641362e-05,-0.04191190682531361,0.0002758520326517228,-0.042674001816067626,-0.040609173879200364,-9.793416759383683e-06,3.4325543061043585e-07,-1.088859569922836e-05,-8.994926881971256e-06,-0.014233516793661378,0.0004988792018299216,-0.01582522357131969,-0.01307301077630757,0.041911909527225066,0.0002758519856383325,0.0406091767490576,0.0426740048133513,0.11758055398530243,-0.00011838694407503598,False,True,False
0,0.12143673197430316,0.0012005090866101051,0.11783597458547518,0.12438614189219434,1.061700854340241e-05,2.4184268141991342e-05,4.947947481634163e-07,0.00012904575938361547,5.474686760590023e-07,2.2149023609321178e-07,2.1404147515778422e-07,1.4786672208224987e-06,-0.5129181523352743,0.00013071272160905154,-0.5133099761348704,-0.5127387625294907,0.0508880090497739,38.414898293836,-103.47,112.89,33.06927927927928,0.01006449309672638,33.05,33.09,-1.070644415713598e-05,5.040699876298894e-07,-1.3793425199528107e-05,-8.827792127697988e-06,-0.042096295322365834,0.000346851056750207,-0.043361386674212486,-0.040608505538592195,-9.186650138922058e-06,4.325165810349963e-07,-1.1835430107856916e-05,-7.574675269028425e-06,-0.013351656754988095,0.0006286092148381161,-0.01720132996882575,-0.01100885118004848,0.04209629769202802,0.00034685099201111285,0.040608508141680155,0.04336138936191555,0.11312217194570137,-3.61530361530418e-05,False,True,False
0,0.12070980651456313,0.0010631854870558853,0.11745297234154307,0.12370642445086827,0.00022526946514272357,0.00032853400448406607,7.805685943618866e-07,0.0010041866094268623,0.0002022415140377947,0.0012771209438361885,2.0509720032296092e-07,0.010420290316973512,-0.5143433229838251,0.00037522334389839343,-0.5147295020072107,-0.5131491384104241,-0.07282080271339723,34.08473888063683,-84.81,66.5,33.06117117117117,0.013667395757705014,33.03,33.09,-1.0792848680417202e-05,3.490940534142057e-07,-1.2689951183565858e-05,-9.379529135679113e-06,-0.04207139458254387,0.0002446321727870342,-0.042674001816067626,-0.04129455371552071,-9.260789424959046e-06,2.9953968724125576e-07,-1.088859569922836e-05,-8.048092473342702e-06,-0.013459409013347407,0.00043534378996292226,-0.01582522357131969,-0.01169690437880151,0.04207139698894229,0.0002446321279226663,0.0412945555650062,0.0426740048133513,0.11758055398530243,-6.440856440856425e-05,False,True,False
0,0.11945491718997113,0.003497042835517763,0.11172819202602276,0.12818053786287129,0.0016944451282325367,0.002298554603326019,3.4218375232111885e-06,0.007879553892159158,0.001282860081569371,0.005458872309346237,1.584820960021105e-07,0.03390063410407618,-0.5173369073458123,0.004414826705027792,-0.5255049972763917,-0.5127573151837758,0.235135746606335,42.94269675667078,-205.98,103.99,33.05927272727273,0.011390410493453096,33.03,33.07,-1.6967161269193284e-05,7.880572003125893e-06,-3.8069853550697574e-05,-7.72431811173574e-06,-0.03572849031518766,0.011875838244855776,-0.04542420958925523,0.03576005279812876,-1.4558650112311773e-05,6.7619143036438385e-06,-3.2665787097685084e-05,-6.627840860399872e-06,-0.021159192543100815,0.009827603906062157,-0.04747567071395907,-0.00963274478254242,0.03674797247161975,0.008189261431078097,0.000735164427885236,0.045424211689479556,0.12217194570135748,5.4910623717971234e-05,False,True,False
0,0.10825157741293386,0.0024999024640451114,0.10349219907226079,0.11342418712780257,0.0004222288099709789,0.0014888526611416064,4.942012671050106e-07,0.006712964838957416,0.0007771662060792817,0.004960363846774261,2.5848667959242395e-07,0.045216214165837966,-0.5325860100371492,0.00348189146719795,-0.5394290392661796,-0.5256305489190941,-0.7126794799321653,30.892143514791886,-143.88,88.76,33.06531531531532,0.014258638199660183,33.03,33.09,-2.755626769160025e-05,4.860209637905402e-06,-4.027680158262207e-05,-4.965633071830118e-06,-0.026722683361349284,0.006066044395395199,-0.042696725396745454,0.0013500411137873788,-2.3644618764343463e-05,4.17029640186325e-06,-3.455945591494219e-05,-4.260754838828489e-06,-0.034364521242245503,0.006061008668255806,-0.050227883508971186,-0.00619247878877727,0.026725766561378587,0.006052542989425121,0.001350338814730704,0.042696744806822506,0.13114754098360654,6.08985608985663e-05,False,True,False
0,0.10595889286062875,0.003257302703952785,0.10110409923200878,0.11796442111386837,0.003403799341208672,0.0034538168707402474,9.569299141162001e-05,0.011567390837264824,0.0023576158436337063,0.010658769759728263,1.408643913736185e-07,0.08332481818178791,-0.5387918827019594,0.002142244169618166,-0.542180632696926,-0.5354329905267604,0.11933257918552012,110.34609297355674,-481.65,404.27,33.082,0.011235592201131689,33.05,33.09,-2.6897803275966665e-05,6.994556371139293e-06,-6.344975591782929e-05,-7.72431811173574e-06,-0.010601671032485459,0.02506002174981076,-0.04199664206704534,0.046074167373342495,-2.3079624250144866e-05,6.0016697715456885e-06,-5.4442978496141804e-05,-6.627840860399872e-06,-0.03354337177993278,0.008722682755377947,-0.07912611785659844,-0.00963274478254242,0.024491621037602922,0.01183257911310041,5.727677650062896e-05,0.046074175655729716,0.09502262443438915,0.00022865901764987907,False,True,False
0,0.11347636875452814,0.007619199564604386,0.10464502387212972,0.12905735087546555,0.004469045575828836,0.007048812508252464,1.6729674583001636e-05,0.025926387931500105,0.0033337509281195013,0.020755846799056697,1.3520555634653243e-07,0.1938269030852118,-0.5290225488381507,0.0058450438314258946,-0.5376634699245648,-0.5156083004283945,0.10497737556561061,40.834448525933894,-128.0,150.29,33.102072072072076,0.012440192713875625,33.07,33.13,-1.8820223686270156e-05,3.974780226896814e-06,-3.475943150281083e-05,-1.3241688191546983e-05,-0.03601249434371058,0.0076126478937136735,-0.041999315429478025,0.0006559728495608071,-1.6148667849426123e-05,3.4105548758939364e-06,-2.9825283871799426e-05,-1.1362012903542639e-05,-0.023470086148415007,0.004956818574602866,-0.04334735152144089,-0.01651327677007272,0.03601401464618386,0.007605486504492105,4.6413939578095886e-05,0.04199932652894656,0.12217194570135748,7.335907335906574e-05,False,True,False
0,0.11440682827500442,0.003493205755980428,0.10728317779181923,0.1220437310153625,0.0020538182235742834,0.0018941696652620844,1.8487206147300308e-05,0.007089558528085527,0.0015509287818924137,0.007374884007668184,1.1727415893947324e-07,0.05349424557423419,-0.5251173895439054,0.00419492391807892,-0.5297015433424622,-0.5155670846886753,-0.029536461277557814,33.03826516243523,-87.46,74.96,33.11218181818182,0.009896882854812201,33.09,33.13,-1.7967923510761566e-05,6.720023101546362e-07,-2.0966006303282724e-05,-1.4896899215490354e-05,-0.03819433474603743,0.0004953072152518626,-0.04130524716525145,-0.03374000368200898,-1.5417352819821202e-05,5.766106865483766e-07,-1.7989853763942512e-05,-1.2782264516485466e-05,-0.02240721044210291,0.0008380321283199872,-0.02614602155261514,-0.018577436366331808,0.03819434209914704,0.0004953068412337128,0.033740014992146024,0.041305254132615286,0.12210288298473713,2.0197011022680727e-05,False,True,False
0,0.11478522134438285,0.0012269039322380852,0.1109195903380643,0.11766399831641568,0.0002981404879254774,0.0006025704552808964,5.813988511962742e-07,0.0023233735295247124,0.00015951448825098153,0.0016685370880333077,2.520962892758728e-07,0.017580266900679133,-0.5230154080226969,0.0012985719229367356,-0.5255458003775141,-0.521693537348787,0.1383031674208143,34.06012110094663,-116.0,81.87,33.10855855855856,0.010689574091935657,33.09,33.13,-1.863048607266579e-05,2.8035924229343594e-07,-1.9862532287320473e-05,-1.7655584255395975e-05,-0.03781334493915134,0.0002359713415989909,-0.03855370271084751,-0.0371762596321251,-1.5985863742965108e-05,2.4056187417242886e-07,-1.7043019355313955e-05,-1.514935053805685e-05,-0.023233470568753335,0.0003496268524125794,-0.02476991515510908,-0.02201770236009696,0.03781335291024745,0.0002359712386969627,0.03717626691126546,0.03855371063472163,0.12669683257918554,9.126009126014416e-06,False,True,False
0,0.11555513844491914,0.0010385930095420661,0.11196968728249258,0.11769838460534061,9.727426953774766e-07,4.775073141311812e-07,5.286801517482566e-07,2.9937641253261075e-06,5.880326904846587e-07,4.5711110033301144e-07,2.499119229949797e-07,3.0978337883571925e-06,-0.5214754303403343,0.0005108076093917388,-0.5220295244509137,-0.5199425625980717,0.23590163934426214,31.44507827874472,-79.65,42.26,33.10709090909091,0.012946286672845671,33.07,33.13,-1.8994357877703117e-05,3.4846497494833356e-07,-1.9862532287320473e-05,-1.7655584255395975e-05,-0.037495444355762846,0.0003568518631395722,-0.038555039392063846,-0.03648820643337207,-1.6298083460290022e-05,2.9899990730208265e-07,-1.7043019355313955e-05,-1.514935053805685e-05,-0.0236872432100124,0.00043455928675858985,-0.02476991515510908,-0.02201770236009696,0.037495452713429085,0.00035685168759856645,0.03648821384977417,0.03855504827526861,0.11305822498586772,5.770574577911341e-06,False,True,False
0,0.11761802158082132,0.0012131523379273292,0.11369786012084401,0.12055858332593135,2.6580477879531668e-05,7.252363360048718e-05,5.007257026261001e-07,0.0002822106732820722,2.8209353754777445e-05,0.00029022735233824457,2.588349164912054e-07,0.0030583895520438567,-0.5185361570413805,0.0005838610865127599,-0.5198772143702305,-0.5170830311910117,-0.3638574660633489,33.86325096929473,-90.46,118.25,33.08837837837838,0.018514885438505446,33.05,33.11,-1.8863913268350114e-05,8.605502219416095e-07,-2.2069480319244968e-05,-1.544863622347148e-05,-0.03755677526019087,0.0007041220046187374,-0.039930477448961735,-0.034426720199545666,-1.6186155637098072e-05,7.383939709506755e-07,-1.8936688172571062e-05,-1.3255681720799745e-05,-0.023524569998995,0.0010731640697098411,-0.027522127950121197,-0.01926548956508484,0.037556783515557954,0.0007041213172950256,0.034426730147989706,0.039930485556283576,0.12217194570135748,-0.0002885222885222825,False,True,False
0,0.11980067733228207,0.0012004787765267754,0.11657895254087093,0.12292527788187388,6.475563568600751e-05,0.00010749891265725263,9.198793410155511e-07,0.00042134690971086465,4.221020828626663e-05,0.00043595133515831003,2.2948318540924606e-07,0.004572933379695486,-0.5153396588049963,0.0011555525632965097,-0.5170382960720342,-0.5129200390905886,-0.025186651583710456,34.543696179606435,-97.79,67.84,33.07036363636364,0.01433077606478092,33.05,33.11,-1.7488939706605298e-05,6.528653097770025e-07,-2.04142692953016e-05,-1.544863622347148e-05,-0.038518695515503604,0.000494348917746844,-0.03992847242713722,-0.03580082157522721,-1.5006361405079574e-05,5.601902088811425e-07,-1.7516436559628233e-05,-1.3255681720799745e-05,-0.021809885387170422,0.0008141670003080934,-0.02545796835386211,-0.01926548956508484,0.038518702424756655,0.0004943484339651307,0.03580082961383261,0.03992847920453688,0.12217194570135748,-0.00017474021143747617,False,True,False
0,1.6616118541507,0.21571447906584584,1.354955233875599,2.2794012409688715,0.32931994938885406,0.23355456964231425,0.04986473564158678,1.0780860892127595,0.2861002451633174,0.5434639478515181,8.664338579933428e-08,2.5692046579573784,1.3909259153402105,0.12660903390435718,1.1358986043191386,1.5423748363568432,-0.5198417184850194,82.5723699780893,-295.85,249.65,32.73290909090909,0.01175791394977794,32.71,32.75,-1.631805890686255e-05,4.815874236988122e-06,-3.9725064574640946e-05,2.0966006303282724e-05,0.0024335632548290855,0.008056414387573922,-0.03236991234997646,0.07364708920968471,-1.400168869547145e-05,4.132254470198718e-06,-3.408603871062791e-05,1.7989853763942512e-05,-0.02034971819162666,0.006005719438101109,-0.04953983031021816,0.02614602155261514,0.00631403072533045,0.005560856003112701,1.4812959439817836e-05,0.0736470943912081,0.07235726399095534,-2.3082298311644084e-05,False,False,True
0,2.0232320741972885,0.12347255058606425,1.8575474260745684,2.3893706144109914,0.43210882935758294,0.31560007140065904,0.0444404770843219,1.1803303276150325,0.29241459119643354,0.8341371061288898,1.0646440795625267e-07,6.518413397093216,1.8132598055300777,0.20990804176985564,1.5425004046279076,2.0647398702032653,-0.5943382352941161,146.0428752497704,-432.66,648.68,32.70891891891892,0.017443485439416997,32.68,32.73,-2.4020532227558314e-05,7.291678673399035e-06,-3.8069853550697574e-05,1.655211023943373e-06,0.004208189883897527,0.005536498060296865,-0.024101912174601187,0.04264593151052443,-2.061078566203535e-05,6.256615166979523e-06,-3.2665787097685084e-05,1.4202516129428298e-06,-0.029955221048879085,0.009093214272266285,-0.04747567071395907,0.00206415959625909,0.0054583706407816835,0.004307583060079543,2.5675796362350915e-05,0.04264593398924886,0.14932126696832582,-8.599508599493669e-06,False,False,True
0,2.0959456513674373,0.15075257419134533,1.9399233146194044,2.4928711649469846,0.2757031582379903,0.20872755962647108,0.06486140314061326,0.8171748393477059,0.23754779130305756,0.5332831468448919,6.517978157205562e-08,3.05824419330434,2.0746682560236835,0.05245452578144226,2.015433591114433,2.1658893738399696,1.5767703619909497,64.37225421711653,-256.37,175.76,32.69972727272727,0.01874302761660629,32.66,32.73,-1.6859185587767114e-05,3.6314478623816293e-06,-3.586290551877307e-05,3.86215905586787e-06,0.002310708273481223,0.008143695840875995,-0.02204844602807284,0.08737206279190407,-1.4466001722779681e-05,3.1159589981330066e-06,-3.0772118280427976e-05,3.313920430199936e-06,-0.021024539598095977,0.004528659998645613,-0.04472345791894695,0.00481637239127121,0.0053809262976032305,0.006532882959125928,1.77755513277814e-05,0.08737206356621119,0.15837104072398192,-0.0002078759326465781,False,False,True
0,2.4535371096906875,0.22909155261576397,2.1524035705100384,3.013938552685871,0.6612439228995686,0.32074625800096024,0.25345856199519146,1.4507968375900369,0.49426309333147506,0.9387835179753522,9.783183685385666e-08,5.139584921103456,2.207791502587998,0.017571487429454802,2.1670293951176878,2.2295965820723063,-3.445110231769361,69.50839601131169,-444.39,278.54,32.67207207207207,0.01508262800329265,32.65,32.71,-1.3857638659214045e-05,2.5232648630850122e-06,-3.917332756665982e-05,4.413896063848994e-06,0.003687816516406504,0.003894589320378656,-0.01380851615824076,0.038536325855035046,-1.1890528381353378e-05,2.1650840526307782e-06,-3.3612621506313634e-05,3.7873376345142126e-06,-0.01728140847670322,0.003146681181854245,-0.04885177711146513,0.00550442559002424,0.004233180174267093,0.003292940998149377,2.172567384506616e-05,0.0385363262939249,0.027133973996608253,-0.0002151632151632328,False,False,True
0,2.4306603898941708,0.20291113055968216,2.116833195750939,2.9088370267283943,0.42022012954197147,0.21474547987696402,0.12195409558846781,0.8837669195524152,0.32606536097459055,0.6914327931538079,9.111363397096284e-08,3.9990618286221036,2.4155990981983875,0.18614030364677678,2.199826122179032,2.723127437872627,3.246651583710406,86.44445209697379,-249.96,269.2,32.64545454545455,0.016346947285999582,32.61,32.68,-1.1660125320252673e-05,2.8492533798519965e-06,-2.3172954335207218e-05,5.517370079811242e-07,0.005009286657816967,0.004361736989794351,-0.015853293876862885,0.05434885095479948,-1.000495498981823e-05,2.4447980649481518e-06,-1.9883522581199616e-05,4.734172043142766e-07,-0.014540961379077044,0.0035532108118658547,-0.02889823434762726,0.00068805319875303,0.005462383446761845,0.003778220020788215,1.975061258642378e-05,0.05434885154315641,0.07239819004524888,-0.0004439735815882052,False,False,True
0,2.6065243482077127,0.12790346936467237,2.443391952219827,2.9793762289941297,0.41511664579732777,0.16643883412074925,0.13753688505913186,0.8938617738765513,0.30792593936285784,0.6777276839819285,1.0221779866981251e-07,4.054956577000834,2.6757645811712423,0.08928914938753307,2.5743879837141446,2.8778764091206854,-1.0414641040135673,73.61447048486426,-402.71,248.08,32.61378378378379,0.016952020745946164,32.59,32.65,-1.3301605332685206e-05,4.757813457547522e-06,-3.8069853550697574e-05,1.1034740159622484e-05,0.002298672554355389,0.011435027026016262,-0.04062588239440465,0.08737807785737761,-1.1413424726635591e-05,4.082435495786154e-06,-3.2665787097685084e-05,9.468344086285531e-06,-0.016587997479439565,0.005933313736764566,-0.04747567071395907,0.013761063975060599,0.007930276636855041,0.008549243220379036,1.3825428810496648e-05,0.08737807800557462,0.14019219898247595,-0.000338013338013325,False,False,True
0,2.5838628993060886,0.08337835500497494,2.484462875853578,2.849508765756913,0.22095802930303396,0.1285725299457404,0.08490528709025662,0.6040802550150599,0.16386050391378446,0.36649916040079106,9.875268069947651e-08,2.5393419229954484,2.837027597129334,0.030221356493807822,2.7891139989984146,2.8895363853448472,-0.18347285067873362,75.79819021286318,-388.09,386.04,32.573090909090915,0.015129135543225527,32.55,32.61,-1.5124085042306111e-05,4.7761301584837585e-06,-6.289801890984815e-05,2.2069480319244968e-05,0.0019882419872942355,0.0070204212715088005,-0.054430388508996376,0.050254617133298034,-1.2977201012379579e-05,4.098152116611035e-06,-5.396956129182753e-05,1.8936688172571062e-05,-0.018860752389347764,0.005956155896140273,-0.07843806465784542,0.027522127950121197,0.004802842008893149,0.005490985339629295,1.6788020698460215e-05,0.05443044832951268,0.08144796380090498,-0.0002435362802335609,False,False,True
0,2.6196330029159713,0.18858025862604666,2.4140989878486594,3.124661401249456,0.304870987955054,0.2992156432764682,0.019999652682674677,1.1066005188179346,0.28031884339956853,0.6335491398427849,1.068075867749485e-07,4.5483379858358255,2.8049550926632705,0.04694837987800386,2.7221883632657122,2.865432443705243,0.21849067269643854,51.76351616324604,-348.28,204.23,32.53936936936937,0.01855112244970939,32.5,32.57,-1.3458642404854813e-05,3.1782305906954324e-06,-3.144900945492408e-05,1.655211023943373e-06,0.0016256951623923128,0.005157321989560704,-0.019971587960258493,0.0708694794715621,-1.1548170177103505e-05,2.727076522234338e-06,-2.6984780645913764e-05,1.4202516129428298e-06,-0.01678383328212476,0.003963467544626873,-0.03921903232892271,0.00206415959625909,0.0033502412670578016,0.004243508387043474,1.3825428810496648e-05,0.0708694794715621,0.1492368569813454,-0.00023008073008070874,False,False,True
0,2.539373810005452,0.12475035215339503,2.377516464382716,2.9093886549725614,0.202091355420091,0.13406395840167362,0.06578287475985344,0.7154411686291804,0.111454187180231,0.2654928949206442,1.8097919785020622e-07,1.6682321846289372,2.7912820743709847,0.08662809867617972,2.6985800596972456,2.923489057272369,0.5449038461538449,96.57819542041675,-406.87,329.27,32.50127272727273,0.015090497095373913,32.47,32.53,-1.2243693309463477e-05,3.5305803808418103e-06,-3.255248347088633e-05,8.276055119716864e-06,0.003578767851733306,0.004922000492983043,-0.030313772841015427,0.028908259456749828,-1.0505684725150637e-05,3.029409790039217e-06,-2.7931615054542318e-05,7.101258064714148e-06,-0.01526870995468121,0.004402871457511521,-0.04059513872642877,0.010320797981295449,0.0051585258066531225,0.0032261323881217644,1.086283692253308e-05,0.0303138031875907,0.07692307692307693,-0.0003242341590965373,False,False,True
0,2.4422606818310935,0.07443051278128666,2.312370766424742,2.6243955060138906,0.184511624297328,0.11268759188686088,0.019048221803521573,0.43291740903957077,0.14478299678420517,0.3614720940420874,1.886959126728982e-07,2.567508004598335,2.6681668281857944,0.022807366450641534,2.606668208910368,2.7023990380687843,0.20424208144796352,56.60570417054379,-359.73,160.33,32.48261261261261,0.01173276001875444,32.47,32.5,-1.2787316537915469e-05,2.453745274239364e-06,-2.813858740703734e-05,4.965633071830118e-06,0.0026012917328365084,0.004830283634631111,-0.027556213321137935,0.06743522854327048,-1.097213991175441e-05,2.1054328620811116e-06,-2.4144277420028106e-05,4.260754838828489e-06,-0.015946644724040813,0.0030599855736399774,-0.03509071313640453,0.00619247878877727,0.0035826929342497385,0.004154045204623042,1.2837898181175457e-05,0.06743522886069762,0.0497737556561086,-0.00012407862407863424,False,False,True
0,2.307669198676727,0.06551201442571158,2.2140501592365682,2.4871675548658883,0.1389407845654215,0.10504913942949957,0.022095635870523704,0.48244671815905166,0.10062632877263131,0.2455778716718656,7.75136513864183e-08,1.547136406191063,2.5184107960371556,0.06615403228571001,2.429854741411311,2.6052007691196466,0.3536348219332956,39.760213201207605,-186.65,145.89,32.47145454545454,0.012027214067765666,32.45,32.49,-1.53737397970487e-05,5.614973097894794e-06,-5.296675276618793e-05,9.379529135679113e-06,0.0018579566700600446,0.0037986584313705767,-0.01518328587453048,0.020652957752929812,-1.3191416941933554e-05,4.817920182718953e-06,-4.5448051614170555e-05,8.048092473342702e-06,-0.01917208867837628,0.0070022495229301275,-0.06605310708029088,0.01169690437880151,0.00310855105799376,0.0028656850285750167,2.073814321574497e-05,0.02065296145088309,0.13114754098360654,-6.059103306808933e-05,False,False,True
0,2.4541562300863924,0.1592480234689283,2.2308164464409947,2.8936989876489934,0.27710968007931885,0.19837330154911179,0.040122961854158284,0.864675527980227,0.2348818866887555,0.517010453448877,1.444922435034357e-07,2.74218314911284,2.592794676621495,0.04935914062716987,2.479400382911242,2.7214464041774327,0.42044683257918664,74.69288190004993,-268.36,331.69,32.445855855855854,0.010132617759984789,32.43,32.47,-1.13299569071056e-05,1.305530940599607e-06,-1.6552110239433728e-05,-3.86215905586787e-06,0.006101698637491429,0.0013822393114223497,-0.0007067667357818266,0.015121130197970548,-9.721654422983102e-06,1.1202090835016065e-06,-1.4202516129428297e-05,-3.313920430199936e-06,-0.014129219136836825,0.00162808498751518,-0.020641595962590898,-0.00481637239127121,0.006103454306734972,0.0013745396047667173,1.77755513277814e-05,0.015121140264597118,0.15384615384615385,7.950157950158949e-05,False,False,True
0,2.66130932251282,0.10367169648874201,2.507114679052858,2.9075899947220734,0.24816098316162588,0.11161263578609575,0.07922983374091719,0.48294027148396923,0.1815095991160501,0.4153409563125476,1.5913378792475896e-07,2.2528360428282346,2.922131527207953,0.07115675787127121,2.7313179698952537,3.0379223604974155,-1.5338835500282653,72.52194747772253,-242.19,262.36,32.443513513513516,0.009404897046332624,32.43,32.45,-1.0342107599320757e-05,1.2558921012341946e-06,-1.7103847247414853e-05,-2.206948031924497e-06,0.006016684128791857,0.0016817694476328187,-0.0020761897272061737,0.015813193440372606,-8.874031641095519e-06,1.0776165435453548e-06,-1.4675933333742575e-05,-1.8936688172571063e-06,-0.01289730453572205,0.0015661820125221955,-0.02132964916134393,-0.00275221279501212,0.006021393572010548,0.001664866467880708,0.0006754959730546664,0.01581319885503302,0.19446014697569247,-9.863109863111404e-05,False,False,True
0,2.8252341262294105,0.15020115061032951,2.589236041049974,3.119575736671636,0.3549533984512497,0.21000141124570626,0.03803059890671692,0.8291775908966428,0.2713804924850287,0.548938160916692,1.0592328081315827e-07,2.729828012056343,3.0530710838223896,0.03393637431069626,3.006954690833685,3.1067108163771957,0.12858597285067883,85.22657121268337,-425.33,209.96,32.42763636363636,0.016419236465352826,32.41,32.45,-9.993055695459027e-06,1.2893221510797277e-06,-1.6000373231452603e-05,-2.206948031924497e-06,0.007669339612009302,0.002293341175092921,-0.011022217992211907,0.025455294991429428,-8.574528120221586e-06,1.1063011532579962e-06,-1.372909892511402e-05,-1.8936688172571063e-06,-0.012462013309089097,0.0016078715356064965,-0.01995354276383787,-0.00275221279501212,0.007713250459064162,0.0021408789523236762,1.975061258642378e-05,0.025455295157536344,0.16289592760180996,-0.00033478349074684584,False,False,True
0,2.6321662600984457,0.09480285655718865,2.4804066921603227,2.877806974884991,0.18725358819515203,0.1189401766566855,0.04412477782657625,0.4579184900208033,0.13849279862682803,0.3231401226642178,2.2853413716994453e-07,1.9598739245172307,2.940698391579505,0.08071125833173923,2.831041205458783,3.027892207699783,-2.025613340870548,80.89164967321989,-331.65,231.76,32.40405405405405,0.016313874651427484,32.37,32.43,-1.010602447198005e-05,1.1937156001023486e-06,-1.6000373231452603e-05,-4.965633071830118e-06,0.009420469394299164,0.0014297974472030255,0.0034262308409935523,0.01719063651909501,-8.671460828344758e-06,1.0242660796212654e-06,-1.372909892511402e-05,-4.260754838828489e-06,-0.012602892979874502,0.0014886437291150734,-0.01995354276383787,-0.00619247878877727,0.009420479267531682,0.001429795268265883,0.0034262648556184472,0.017190640454539854,0.1628038439796495,-6.2478062478043e-05,False,False,True
0,2.502940158886412,0.09451185651596035,2.3580038816454927,2.705549072889133,0.14199830765470095,0.08636495430169815,0.03672122294114798,0.38049095146511025,0.10591965638578416,0.23858062196226199,1.5886997317693385e-07,1.6744350987349605,2.7986323619150895,0.07235276046934071,2.6431667496474924,2.867001538696531,1.8395644796380097,102.05315875218469,-282.35,324.85,32.38309090909091,0.014319131652305797,32.34,32.41,-1.0158451970475994e-05,1.6737605074526855e-06,-1.6000373231452603e-05,-5.517370079811242e-07,0.006372423617231345,0.0019484659755904586,-0.000705430054565484,0.012378274171472827,-8.716446173551092e-06,1.4361679725442741e-06,-1.372909892511402e-05,-4.734172043142766e-07,-0.012668273600570493,0.0020872920511772414,-0.01995354276383787,-0.00068805319875303,0.006374171162435139,0.0019427823908563814,2.2713204474387347e-05,0.012378276306413137,0.1085972850678733,-0.00020882266753826176,False,False,True
0,2.2529496592801292,0.08248577933030779,2.1060888415305765,2.40166558895298,0.06284805041258101,0.053144041090983966,0.01471819692376174,0.2223824088289632,0.04267360837996521,0.1417322899900189,1.370416775614558e-07,1.0246283039579605,2.5150594930081795,0.08830928792396782,2.3372537344235447,2.640294120175321,0.9055316742081441,87.8259531963009,-298.03,315.76,32.34585585585586,0.016649786701797866,32.33,32.39,-9.348946428223146e-06,1.4932973744372625e-06,-1.544863622347148e-05,-5.517370079811242e-07,0.007055230675915114,0.0017479167822565319,-0.0013874681878449722,0.013754380568978887,-8.02185102197234e-06,1.2813218217910883e-06,-1.3255681720799745e-05,-4.734172043142766e-07,-0.011658765683395517,0.0018622423732834157,-0.01926548956508484,-0.00068805319875303,0.007060022962642222,0.001728481392465366,2.2713204474387347e-05,0.013754382490321458,0.04524886877828055,-0.0003137943137943204,False,False,True
0,2.2295460483574048,0.15908338047817336,2.0679516184563034,2.675795298722556,0.21333417745011132,0.20157887461913784,0.013711240989604592,0.8415905486599591,0.17099213185308654,0.45815257017661687,1.8817664182435578e-07,2.789379013099465,2.330976640330327,0.06450387214435857,2.267787949463378,2.4634360937470627,-0.37159977388354803,101.67493320413824,-308.0,315.88,32.32090909090909,0.014242039756076979,32.29,32.34,-1.0893844607301882e-05,6.565540505183234e-06,-7.06223370215839e-05,1.6000373231452603e-05,0.006553241506080119,0.005205344411547168,-0.02966381505692816,0.08732126890568304,-9.347448845409796e-06,5.633553279576866e-06,-6.05974021522274e-05,1.372909892511402e-05,-0.013585357734475079,0.008187671083844456,-0.08807080944038784,0.01995354276383787,0.007164047085268694,0.004325253416465218,1.6788020698460215e-05,0.08732129452109975,0.07687959299039004,-0.00035146405788606406,False,False,True
0,2.165728921381178,0.042225976079320285,2.0633557809078296,2.252413803730968,0.11374079503581495,0.05341464460947293,0.017730079206473338,0.232268661082834,0.09230726554752743,0.2115512997358303,9.683743940058775e-08,1.275699801783842,2.337890209965959,0.06357041187513354,2.268283301468523,2.463439412091132,0.3972171945701365,104.10643156724967,-289.95,430.63,32.28783783783784,0.012461242124384684,32.27,32.31,-9.852000759029465e-06,1.5164889263154567e-06,-2.1517743311263846e-05,0.0,0.006976787234279945,0.0019659162030486147,-0.01034686326501413,0.016503251660950152,-8.453496120023593e-06,1.30122130196926e-06,-1.8463270968256787e-05,0.0,-0.012286108305787986,0.0018911638000193656,-0.02683407475136817,0.0,0.007081451764547377,0.0015465878183866365,0.0006774596188813172,0.01650325526390501,0.1719457013574661,-0.00017444717444717214,False,False,True
0,2.0529913537997593,0.062154943889384556,1.9632091158206706,2.2032288613643134,0.08470741203934383,0.03913389032369306,0.016293013676648628,0.16797020174879812,0.057604799430816166,0.16905401329907466,9.879271756219055e-08,1.1799733279269315,2.2034452868233902,0.07338503924001769,2.1315203005318666,2.337226166786557,-0.5653024307518381,117.82218777579868,-386.36,302.7,32.27109090909091,0.018932301146160752,32.23,32.31,-9.357060207752279e-06,1.2142209587691772e-06,-1.6552110239433728e-05,-5.517370079811242e-06,0.006845847193005079,0.001702675717839863,-0.0020755213865980026,0.020630902512860157,-8.028813039682844e-06,1.0418606752947235e-06,-1.4202516129428297e-05,-4.7341720431427655e-06,-0.011668884112788942,0.0015142152920484995,-0.020641595962590898,-0.006880531987530299,0.00685534734714233,0.0016640157685606366,1.77755513277814e-05,0.02063090579205767,0.09496890898812888,-0.00045082613889953617,False,False,True
0,2.1317544577964167,0.09578702175006885,1.9654249929398129,2.3880635525863143,0.1630744892308369,0.14091999058323568,0.02757959142345014,0.6000209652757166,0.13783655890367336,0.2703253491229844,1.2604818921957417e-07,1.4521155315236989,2.2392145193902624,0.06040211029107123,2.1321427631657914,2.3133409843589603,-1.1074377828054283,119.40619745403458,-372.84,316.38,32.23954954954955,0.013973181285942795,32.21,32.27,-9.675370020049079e-06,1.3280374111985552e-06,-1.544863622347148e-05,-3.310422047886746e-06,0.006556697203811027,0.0017059816712218215,-1.4703493379768796e-05,0.019256801137178616,-8.301938349864158e-06,1.1395207306012336e-06,-1.3255681720799745e-05,-2.8405032258856597e-06,-0.012065837881300305,0.0016561520717677145,-0.01926548956508484,-0.00412831919251818,0.006556752485172596,0.0017058175440046832,2.172567384506616e-05,0.019256803456433103,0.12669683257918554,-0.00013653913653914222,False,False,True
0,2.1424709222641374,0.07278176661815267,2.0384427572276502,2.378340152310046,0.24351770164819148,0.18003186533017,0.04022206264354902,0.7444216534214031,0.2044458530012082,0.4545826016374735,4.672279452222483e-08,3.1112035787524626,2.174464558143711,0.11828487697804976,1.929897573299496,2.326944002317905,0.5644796380090492,127.857631335524,-450.16,902.17,32.21290909090909,0.01931607946171929,32.16,32.25,-1.0091045186695496e-05,5.232058397843337e-06,-3.255248347088633e-05,1.1034740159622484e-05,0.010211281713425493,0.009060819331407568,-0.011044273232281559,0.04814902041933233,-8.65860787257152e-06,4.4893607347085285e-06,-2.7931615054542318e-05,9.468344086285531e-06,-0.012584212802532793,0.006524729109383795,-0.04059513872642877,0.013761063975060599,0.01060384902303032,0.008597562302669915,1.77755513277814e-05,0.0481490230757953,0.0904977375565611,-0.000429907806054572,False,False,True
0,0.16710851329438434,0.0014057917478599558,0.1621501607439936,0.17032976675989306,0.0004724739607891496,0.0006452767109646643,8.61184618670089e-07,0.002328111036507282,0.00024866081927675174,0.001756465623795176,2.0938185217155708e-07,0.01753730810136049,-0.4471893258465647,0.0011586534760733647,-0.4489211233385856,-0.4456468184160496,-0.502475975127191,51.323007018383734,-138.99,99.66,32.843818181818186,0.01881741425469135,32.81,32.89,-2.6989551398334566e-05,3.0223971121120364e-07,-2.813858740703734e-05,-2.5931639375112838e-05,0.02877136162141881,0.0003296161487705861,0.02748804257910446,0.029554875537796236,-2.3158348604255953e-05,2.5933638136388625e-07,-2.4144277420028106e-05,-2.2250608602771e-05,-0.033657787866150764,0.0003769132704184582,-0.03509071313640453,-0.03233850034139241,0.028771383608879802,0.0003296156697226934,0.027488067584988455,0.02955489528985224,0.12210288298473713,-0.00037977593940896387,True,False,False
0,0.1699787952622075,0.0024084817038390995,0.16424378400725573,0.1745605896531673,0.0007940603810407978,0.001065619486107953,7.617377742417071e-06,0.004016148347453881,0.0005872215577229046,0.003729733768386255,1.4129959845167635e-07,0.03316416001331342,-0.4432715211728103,0.00231806963985127,-0.44669333056776594,-0.4400621582632778,0.7887104072398191,53.171321321987556,-158.55,92.2,32.81252252252252,0.0178105417440175,32.79,32.84,-2.7153075262690962e-05,2.5498402334727954e-07,-2.7586850399056214e-05,-2.6483376383093966e-05,0.02857035163214548,0.0003408520949061932,0.028176764118465664,0.028866153998435035,-2.32986600381138e-05,2.1878870137709869e-07,-2.367086021571383e-05,-2.2724025807085277e-05,-0.03386171313546445,0.0003179822458112424,-0.0344026599376515,-0.03302655354014544,0.02857037404257764,0.0003408516271027055,0.02817678756585982,0.028866175091479308,0.11312217194570137,-0.00038627588627588325,True,False,False
0,0.17127967305648414,0.0027507980478275016,0.16288770498722482,0.1783357558548052,0.0017041142079790782,0.002163553605328656,2.434073650413786e-06,0.00888427569171114,0.0013487587642991637,0.007329444829151301,1.1699211763249728e-07,0.06644234216017277,-0.4424336554633655,0.0019096158945532554,-0.4450328155998512,-0.43955268369979117,-0.2528563348416296,83.69335852346292,-269.59,522.28,32.79,0.012992587865761141,32.77,32.83,-2.776972250690516e-05,2.4106133260791536e-06,-4.855285670233894e-05,-1.544863622347148e-05,0.027128117645028416,0.005424996209848251,-0.01931494677008952,0.03919296704520403,-2.3827773384112113e-05,2.0684235514507587e-06,-4.166071397965634e-05,-1.3255681720799745e-05,-0.03463071376936489,0.00300619713010476,-0.06054868149026664,-0.01926548956508484,0.0274922379658113,0.0030856165264591833,0.0006324831994261037,0.03919297730094132,0.12669683257918554,-0.00021946216441628047,True,False,False
0,0.17297797704506293,0.006401373534283172,0.16409574134004548,0.18765340039273884,0.00188137000413862,0.0026478548460675154,1.1130410733296689e-05,0.010488868205220821,0.0015333351823264576,0.011122298902222967,1.7081605812457878e-07,0.11423106154470263,-0.44022716496927955,0.006784846445497142,-0.446585139213019,-0.4290108173191166,0.6484906726964393,108.66093043959692,-434.24,347.06,32.77180180180181,0.015385837537293506,32.75,32.81,-2.6870527436151908e-05,5.303296333747933e-06,-5.4070226782150183e-05,5.517370079811242e-06,0.026818629578283168,0.005858088721577206,-0.010370255186300126,0.055009502188617485,-2.305622025214648e-05,4.550486350661823e-06,-4.6394886022799105e-05,4.7341720431427655e-06,-0.03350935697113485,0.006613567612081077,-0.06742921347779694,0.006880531987530299,0.02686883863640225,0.005623153990816076,0.0007308815363982862,0.05500951517878626,0.14019219898247595,-5.458055458056504e-05,True,False,False
0,0.17395911392054533,0.0026073802550386515,0.16635560368763144,0.18125627527566113,0.0021429936383981535,0.001902755919859077,8.475411654981546e-06,0.005715773891685779,0.001599650749646502,0.005163427704835254,1.5239925087867645e-07,0.03321761393878053,-0.43895520982724784,0.003944442257806413,-0.4463011067973165,-0.4312308666286626,-0.3351923076923083,75.53460464732233,-446.7,260.35,32.773272727272726,0.011971609451560665,32.75,32.79,-2.8100515056939097e-05,5.932259234858326e-07,-2.9242061422999583e-05,-2.1517743311263846e-05,0.024032255889414017,0.0007118426434184671,0.02267167018783325,0.031621708496488016,-2.4111609490771126e-05,5.090167129644961e-07,-2.5091111828656657e-05,-1.8463270968256787e-05,-0.03504323435232768,0.0007397926699374339,-0.03646681953391059,-0.02683407475136817,0.02403228447068207,0.0007118411480457756,0.022671700505963822,0.031621723948938,0.11764705882352942,9.88210896467573e-05,True,False,False
0,0.18764258459988628,0.009295471329418502,0.16676324823367936,0.20725464729403842,0.0046856079598839116,0.004942974740296579,2.7848574714741517e-05,0.019465565252788967,0.003618506206329247,0.01510626476430785,9.822256993863299e-08,0.13377281549619813,-0.42158817480642385,0.009903189743108443,-0.4431776513869273,-0.4061322960403631,-0.399327303561334,90.83474131773534,-572.43,335.04,32.77576576576577,0.010578670611576897,32.75,32.79,-2.7025751337772244e-05,1.1817326679901354e-06,-3.0345535438961837e-05,-1.7103847247414853e-05,0.025472709788759745,0.0014570035128160178,0.019918789052212962,0.031623045177704354,-2.3189409914041276e-05,1.013984140693859e-06,-2.6037946237285214e-05,-1.4675933333742575e-05,-0.0337029316280599,0.0014737002059310507,-0.03784292593141665,-0.02132964916134393,0.025472734917946747,0.001457000195503304,0.01991882492699212,0.0316230592255524,0.13114754098360654,-8.424008424006411e-05,True,False,False
0,0.17792822544115272,0.0033917118167626314,0.17156920965126554,0.18393925981044362,0.0007265552405436148,0.0011574089112651922,8.077534821906809e-06,0.004661352214432699,0.0008165539908978792,0.0040197187128986215,1.7037371740150076e-07,0.031356884552699305,-0.43164912417722645,0.005178616316069841,-0.43891189940875214,-0.4238176469776701,0.8300056561085977,57.431958648417314,-154.88,100.38,32.76854545454546,0.010737601224981524,32.75,32.79,-2.6449048854316863e-05,1.9961329021048403e-07,-2.7586850399056214e-05,-2.482816535915059e-05,0.026557636997566216,0.00036504735460510794,0.025425219664061714,0.028178769140290178,-2.2694571116771605e-05,1.712779176100772e-07,-2.367086021571383e-05,-2.1303774194142445e-05,-0.032983744800404016,0.00024893121334293233,-0.0344026599376515,-0.03096239394388635,0.026557659871553084,0.00036504695179550716,0.025425244619954178,0.028178789856934488,0.13574660633484165,-0.00010964091698038672,True,False,False
0,0.1785409246046098,0.003785473471861925,0.172599328106731,0.1866906835751245,0.0021384720692312967,0.0025884408145005373,9.466800740794815e-06,0.009793672971593897,0.001300290935997323,0.006692352932187109,1.2924108827409853e-07,0.05280459944609647,-0.43225244757258247,0.004003336316860275,-0.4390758751390117,-0.427334889228179,-0.9874731486715663,70.59528787008256,-263.46,285.82,32.76783783783784,0.009853970626135668,32.75,32.79,-2.4374930551464407e-05,2.5573428555814227e-06,-3.144900945492408e-05,-6.069107087792367e-06,0.02915014901073496,0.0022397768135354367,0.026113272862814743,0.040573751826967284,-2.0914876671502357e-05,2.194324628671393e-06,-2.6984780645913764e-05,-5.2075892474570424e-06,-0.03039717962129488,0.0031891787330517512,-0.03921903232892271,-0.00756858518628333,0.029150167186478934,0.0022397730723069226,0.0261132971611502,0.040573758496580126,0.12662521198417184,-2.0007020007026875e-05,True,False,False
0,0.17406747106179427,0.002111381216758639,0.16921509728155643,0.17888343431242978,0.00029623038984474094,0.0005436509228910017,1.3040519983945006e-06,0.0021272979128042933,0.0002276986851790975,0.0018836819985451859,2.3529958384266476e-07,0.019390118864201784,-0.4370071437631328,0.0020602618243222657,-0.43917741187744147,-0.43314487236292243,-0.03650452488687807,61.73832777878085,-147.99,97.52,32.76163636363636,0.015176470968549844,32.73,32.79,-2.423273876908951e-05,1.5136385298469173e-07,-2.482816535915059e-05,-2.372469134318834e-05,0.029597407200093295,0.00016849444405310027,0.02886882736086772,0.030245602098981954,-2.0792869202156225e-05,1.2987755230785826e-07,-2.1303774194142445e-05,-2.035693978551389e-05,-0.03021985689455333,0.00018876091636989314,-0.03096239394388635,-0.029586287546380288,0.029597424425384447,0.00016849432689164853,0.028868845083243815,0.03024561825448305,0.12669683257918554,0.00011469016973603564,True,False,False
0,0.17262940478485747,0.0010504634625659284,0.16905680987074148,0.174680751745229,2.6878322982164237e-06,3.122608169105861e-06,5.077866087312705e-07,1.2460531638295113e-05,1.6850861234583263e-06,9.840265426455856e-06,2.4807963672937545e-07,0.00010376535936087136,-0.438633305513246,0.0009092419329557172,-0.4397943990261324,-0.43739611705113934,0.6650565610859731,58.55366813402266,-149.66,94.8,32.75414414414414,0.010826605987816523,32.73,32.79,-2.4275804214282608e-05,4.9120829164140005e-08,-2.482816535915059e-05,-2.372469134318834e-05,0.029556102974939588,2.314183533385241e-05,0.02886882736086772,0.029557548900228922,-2.0829821450004284e-05,4.214806199348129e-08,-2.1303774194142445e-05,-2.035693978551389e-05,-0.03027356240441075,6.125698139310582e-05,-0.03096239394388635,-0.029586287546380288,0.029556120284404724,2.314182125066924e-05,0.028868845083243815,0.029557565431804437,0.12669683257918554,-4.896454896454982e-05,True,False,False
0,0.17199182851045988,0.0010803265720327033,0.1690115173271618,0.17396892128436686,4.253032696859373e-05,8.418177295047091e-05,6.360465943458297e-07,0.0003244321122500167,3.269596120693371e-05,0.0003323414211883144,2.433832643191844e-07,0.0034864968074360615,-0.43976297549929017,0.0005912542951447833,-0.440412546378828,-0.4381638459891637,0.045200678349350196,62.89935566500974,-169.02,115.32,32.75018181818182,0.011961852069007208,32.73,32.77,-2.4253959423242634e-05,1.2665917670924554e-07,-2.482816535915059e-05,-2.372469134318834e-05,0.029556907777111577,8.021084359941807e-05,0.028868159020259552,0.030245602098981954,-2.081107755616831e-05,1.086797377573958e-07,-2.1303774194142445e-05,-2.035693978551389e-05,-0.030246320479120754,0.0001579525216282081,-0.03096239394388635,-0.029586287546380288,0.02955692505548646,8.021079588768697e-05,0.028868177557781215,0.03024561825448305,0.13566986998304126,-5.6172936906890635e-05,True,False,False
0,0.17285958985302458,0.0013727498739098312,0.16840792347146108,0.1757446716006004,0.0003266231057303563,0.0006473223930947463,4.843306438072902e-07,0.002498936909953558,0.00025205059331045174,0.0015686602132720735,1.7032584312010644e-07,0.012682342364636903,-0.4386867407484704,0.0007895926930420469,-0.43986024686766456,-0.43733230102405385,-0.4209162895927591,62.38803246231848,-151.0,107.19,32.74171171171171,0.012495371788560297,32.71,32.77,-2.426706629786662e-05,1.8073031377641674e-07,-2.482816535915059e-05,-2.372469134318834e-05,0.029556113559519356,0.0001247572348678706,0.028868159020259552,0.030245602098981954,-2.0822323892469897e-05,1.5507540484904398e-07,-2.1303774194142445e-05,-2.035693978551389e-05,-0.03026266563429475,0.0002253828702927182,-0.03096239394388635,-0.029586287546380288,0.029556130858042078,0.0001247570816907575,0.028868177557781215,0.03024561825448305,0.12217194570135748,-9.389259389259571e-05,True,False,False
0,0.17454454149752327,0.001143504204721661,0.17136884606282807,0.17716099906154184,4.276201151444184e-05,9.925393781367156e-05,5.401315999648794e-07,0.0003796042261110179,3.780172436289461e-05,0.00036434708164945564,2.627365496303267e-07,0.0038312928842063414,-0.43600687179371794,0.0006468480377050441,-0.43728434789256754,-0.43437578388067144,0.35127190503109057,58.93680249146149,-151.65,98.99,32.737207207207206,0.011051217223882002,32.71,32.75,-2.4284532962586136e-05,7.60812137437236e-08,-2.482816535915059e-05,-2.372469134318834e-05,0.029550651052255853,8.638192312968616e-05,0.028868159020259552,0.030244933758373782,-2.0837311140851992e-05,6.528138404778314e-08,-2.1303774194142445e-05,-2.035693978551389e-05,-0.03028444774127319,9.487839627240123e-05,-0.03096239394388635,-0.029586287546380288,0.02955066837766668,8.638185055620907e-05,0.028868177557781215,0.030244950674404542,0.13114754098360654,-6.107406107406751e-05,True,False,False
