,EDA_mean,EDA_std,EDA_min,EDA_max,EDA_phasic_mean,EDA_phasic_std,EDA_phasic_min,EDA_phasic_max,EDA_smna_mean,EDA_smna_std,EDA_smna_min,EDA_smna_max,EDA_tonic_mean,EDA_tonic_std,EDA_tonic_min,EDA_tonic_max,BVP_mean,BVP_std,BVP_min,BVP_max,TEMP_mean,TEMP_std,TEMP_min,TEMP_max,ACC_x_mean,ACC_x_std,ACC_x_min,ACC_x_max,ACC_y_mean,ACC_y_std,ACC_y_min,ACC_y_max,ACC_z_mean,ACC_z_std,ACC_z_min,ACC_z_max,Resp_mean,Resp_std,Resp_min,Resp_max,net_acc_mean,net_acc_std,net_acc_min,net_acc_max,BVP_peak_freq,TEMP_slope,0,1,2
0,1.2916064067494817,0.09491880773615555,0.8111303962380412,1.3607464357427492,0.7095734416739582,0.26957982937233094,0.056305512465233826,1.1257238739694422,0.5934707920047182,0.7625969422418755,1.271446059547543e-08,4.520068727556854,-1.0396522096538707,0.31030780599681657,-1.502611852759683,-0.3175292494518538,3.192622950819668,193.08277860755234,-687.52,603.23,34.222162162162164,0.11136676022294732,34.0,34.37,1.22922017925015e-05,1.423968010459231e-05,-1.544863622347148e-05,3.9725064574640946e-05,0.03175552267125708,0.01522648606782094,-0.005471008559615674,0.050944007013267414,1.0547307364366771e-05,1.2218338534355389e-05,-1.3255681720799745e-05,3.408603871062791e-05,0.015329203299224287,0.017757839882873713,-0.01926548956508484,0.04953983031021816,0.03186158310691903,0.015003053091667279,5.5301715241986593e-05,0.0509440161639041,0.09044657998869417,-0.003358195858195885,False,True,False
0,1.158170974029176,0.09535180165649719,0.7546623161795931,1.2584431108825056,0.43746507868947987,0.38215125863216926,0.03947540448325777,1.1814182697503015,0.2934018134068816,0.8617012590957753,2.4459993142045278e-08,6.739951445716743,-0.908545905953267,0.4498812342069909,-1.644549290269167,-0.4937898256860844,-3.7114083710407257,228.33537199854084,-1092.57,743.27,33.897090909090906,0.06179791651345967,33.79,34.03,2.1737439495437326e-05,1.1191306212490958e-05,-2.0966006303282724e-05,4.800111969435781e-05,0.01824183934063185,0.01446005652884125,-0.010972092446599057,0.05297140787607708,1.865178098626428e-05,9.602685379269904e-06,-1.7989853763942512e-05,4.1187296775342064e-05,0.027108050685713272,0.013956312384962396,-0.02614602155261514,0.05986062829151361,0.019050965070821897,0.013374809651917112,4.937653146605946e-05,0.05297140871920031,0.13122171945701358,-0.0017495660798413145,False,True,False
0,1.049606887054277,0.0970379741741439,0.6602416954554152,1.187598610957219,0.447582705563966,0.2986006835053559,0.039602702226058925,0.9618265510557666,0.3395974369602104,0.6641316033481285,1.4238253243092913e-08,3.998464600226983,-1.0357152745227727,0.33532656650963494,-1.54327968185506,-0.555319606562501,0.016020350480499594,141.12585996472222,-643.12,623.53,33.76144144144145,0.04140370749422139,33.68,33.84,2.7009523778713973e-05,7.197438016688436e-06,-8.827792127697988e-06,4.6345908670414436e-05,0.014702105290403812,0.013752725838539,-0.031613688409189954,0.05299279477553856,2.317548587862027e-05,6.175752097097868e-06,-7.574675269028425e-06,3.976704516239923e-05,0.03368269476927305,0.008975689827894536,-0.01100885118004848,0.05779646869525452,0.017551767914211543,0.009855053409118133,7.3077266569768e-05,0.05299279657580275,0.13566986998304126,0.000243945243945249,False,True,False
0,1.0806255448023334,0.048795611887553395,0.9028421936042994,1.1590769525882176,0.2267127466324729,0.1826961070033607,0.0023965687429567833,0.5760936216447277,0.17038830611930042,0.44873000287527437,2.717939473484421e-08,3.201734273122021,-0.7817422808750788,0.18519951105479943,-1.0624066696419532,-0.5504832995199559,0.505808823529412,154.50843983856942,-822.42,604.86,33.80372727272727,0.04137231026560993,33.75,33.89,2.7998156607494627e-05,1.2572819272453602e-05,-1.0483003151641362e-05,5.738064883003692e-05,0.0068731951909330674,0.016735068346000675,-0.009595986049092998,0.05712044562744857,2.4023780959653998e-05,1.0788090819018024e-05,-8.994926881971256e-06,4.923538924868476e-05,0.03491558647382599,0.015679152191384993,-0.01307301077630757,0.07155753267031512,0.012828606878451472,0.012751428471553958,4.6413939578095886e-05,0.05712044712644049,0.15837104072398192,-0.0011625453643802103,False,True,False
0,1.0393894362793357,0.02078209645214729,1.0049737307177096,1.0828577845236316,0.002073968122619307,0.002191979578921525,4.8919869262455274e-05,0.008428542095852849,0.0011378728394586127,0.008856742240393223,9.613590942585126e-08,0.09138186302660835,-0.6013897534437169,0.021344162173541646,-0.6369785967999892,-0.5584639387239031,-1.1434785067873319,109.13412751732801,-727.28,394.18,33.8536036036036,0.07556806435613023,33.75,34.0,3.421081517926399e-05,1.1591150570456447e-07,3.365595748684858e-05,3.475943150281083e-05,-0.0063214945091067025,0.0005384538119414449,-0.0075271480685767085,-0.0033994972166667,2.9354544366604576e-05,9.945771297688722e-08,2.8878449463170872e-05,2.9825283871799426e-05,0.042663190026300715,0.00014454945221842712,0.04197124512393483,0.04334735152144089,0.006321656497018668,0.0005384389885170878,0.00339978646600671,0.0075272830254161155,0.07239819004524888,0.002278694278694255,False,True,False
0,0.969224649125926,0.032676921495552666,0.855008283716149,1.0051304938574597,0.07144367100173317,0.06879945082376086,9.875601152341036e-06,0.18658213265720744,0.06365229031682951,0.14574370949247947,2.741304783171472e-08,1.1859070239410832,-0.7457621116383435,0.07409060359362189,-0.8464945652743083,-0.6378503429087814,0.05983041266252443,128.2134997047203,-545.71,691.01,34.15654545454546,0.07427245113430626,34.03,34.33,2.825953314663998e-05,9.273254696723687e-06,1.1034740159622485e-06,5.1863278750225675e-05,0.0060618888828927,0.019648983919421516,-0.028864817317218693,0.04886380724241221,2.4248054750691352e-05,7.956903832645127e-06,9.468344086285532e-07,4.4501217205542e-05,0.035241540617261126,0.011564372997706506,0.00137610639750606,0.06467700068278481,0.01531786055678273,0.013710211283301289,6.122689901791373e-05,0.04886380899469248,0.12210288298473713,0.0021931790005184524,False,True,False
0,0.9756234814680246,0.01660303773576134,0.9446325426433854,1.0001744846451597,0.018596362687258092,0.02827425147415633,0.0004119544835624286,0.12390221116540032,0.005706484183519642,0.01612869373129271,7.012013684970508e-08,0.09418448140389879,-0.6861054088763502,0.02371997943326765,-0.7657226430081655,-0.654817679499303,0.1629524886877829,23.646289323024146,-109.4,103.89,34.50045045045045,0.0865856106813836,34.33,34.63,1.3971928349169057e-05,8.483243757352044e-07,1.0483003151641362e-05,1.82073212633771e-05,0.03830350488633039,0.0008418902500346032,0.03166982902027635,0.043362723355428824,1.1988594497488002e-05,7.279035999085168e-07,8.994926881971256e-06,1.5622767742371126e-05,0.01742393541548114,0.0010579176162943626,0.01307301077630757,0.022705755558849988,0.038303509338498895,0.000841889727955692,0.0316698360379974,0.04336272657935418,0.13122171945701358,0.0026009126009126264,False,True,False
0,0.926256045126784,0.014912172835572972,0.9005143406662283,0.9504308201996688,0.000303442986807585,0.0003638004269879378,2.5116149161620977e-06,0.0015039816265600178,0.00021509380298909446,0.0013345409608447726,7.31774899064366e-08,0.012581345688327548,-0.7206512761283942,0.015958244614095528,-0.7458025492383942,-0.6977552003122421,0.06563595251554542,36.045233290065795,-259.22,102.06,34.467454545454544,0.09713734118527043,34.31,34.61,1.599225945192347e-05,8.408419142986485e-07,1.3793425199528107e-05,1.7655584255395975e-05,0.037658372711201586,0.0005589253332572434,0.036483528049114866,0.03992513072409637,1.3722136907403518e-05,7.214832838458955e-07,1.1835430107856916e-05,1.514935053805685e-05,0.019943424334444442,0.0010485864830705697,0.01720132996882575,0.02201770236009696,0.037658378631509885,0.000558924775467223,0.03648353257630812,0.039925135549426456,0.13114754098360654,-0.003007010346459867,False,True,False
0,0.8870084191645047,0.008357890757099867,0.8681626389871783,0.9030145719629143,0.0005165405396694398,0.0009924575987717125,1.3795073092619316e-06,0.006552507026058726,0.0009454158016497037,0.006633830941947592,8.310422621556816e-08,0.0661272932122306,-0.7628953261147698,0.009283362079470543,-0.786245022980409,-0.746163923858033,0.05162895927601818,32.62774350693916,-75.83,46.16,34.199189189189184,0.06673059997462198,34.11,34.33,1.6663206605294182e-05,2.213797959416508e-07,1.6552110239433728e-05,1.7103847247414853e-05,0.037206969495905504,0.00014475837386786097,0.037174922950908754,0.037863644490269965,1.4297842218079814e-05,1.8995463884116893e-07,1.4202516129428297e-05,1.4675933333742575e-05,0.02078014061120859,0.00027607551158170135,0.020641595962590898,0.02132964916134393,0.03720697597570749,0.0001447583327532519,0.03717492934882083,0.03786365119755569,0.12669683257918554,-0.0020078975078975125,False,True,False
0,0.8607178317478383,0.016600444273685042,0.7891539521583592,0.8881937914764471,0.0492979900715053,0.03554954208674101,0.005769721987387827,0.1151109160986189,0.03789203739260101,0.08596249757922929,2.2235169261364263e-08,0.5740339546609188,-0.8397942599580898,0.029384733044222587,-0.8839097781925342,-0.7876986632770153,-2.845876696832581,177.7345043841891,-849.75,518.27,34.110727272727274,0.03598442810283642,34.05,34.16,2.6215621658632536e-05,5.2086455667277266e-06,9.931266143660237e-06,4.6345908670414436e-05,-0.009586978642109644,0.02442276293374065,-0.03437458963210831,0.03923841420655968,2.249427922263864e-05,4.469271386175625e-06,8.521509677656977e-06,3.976704516239923e-05,0.03269264537016235,0.006495531732539517,0.01238495757755454,0.05779646869525452,0.02447320530939194,0.009427129052889846,0.0006432854897290123,0.039238419870652866,0.1085972850678733,0.0008594549511980348,False,True,False
0,0.82258035214093,0.010331979279618706,0.8060518913622603,0.846432550456655,0.004927472382742041,0.0037054406344797564,3.10410041380978e-05,0.013421738255657192,0.003465165817831307,0.012973655752073996,7.323314983381443e-08,0.07213434096626177,-0.8363659542991237,0.009795866672451515,-0.8506228086872449,-0.8137777034433963,3.0774731486715647,162.6166644077487,-805.01,848.5,34.22423423423423,0.06303750037657366,34.15,34.39,2.8331227786095155e-05,2.3555682610047403e-06,2.5931639375112838e-05,3.531116851079195e-05,-0.02111884673567763,0.00895853550980962,-0.030929645254085952,0.013113111212797849,2.4309572240517498e-05,2.0211922067305995e-06,2.2250608602771e-05,3.02987010761137e-05,0.03533094866003695,0.002937552227638268,0.03233850034139241,0.04403540472019392,0.021315152179221517,0.008480407727296312,5.5301715241986593e-05,0.030929665768681044,0.054267947993216506,0.0018315198315198514,False,True,False
0,0.7905691858559146,0.009578497618064471,0.7767427806829628,0.8092322694242079,0.002370428491347775,0.002940447504900026,2.0577225849155773e-05,0.012062514695699482,0.0016503641013524775,0.008709930216770008,8.48282883381124e-08,0.07787747727883147,-0.8681087630299342,0.010447959148714407,-0.8788690603343661,-0.8507481685508401,-0.14534502262443505,95.40445009899925,-673.93,350.68,34.389272727272726,0.02467064113026116,34.34,34.47,2.902111696505239e-05,2.0256579459805077e-06,2.6483376383093966e-05,3.365595748684858e-05,-0.02120420722395241,0.006212580229340633,-0.028861475614177838,0.017237420361667,2.4901530731001394e-05,1.7381131006457703e-06,2.2724025807085277e-05,2.8878449463170872e-05,0.036191286918120354,0.002526131851135612,0.03302655354014544,0.04197124512393483,0.021605838300018606,0.004624316973334992,0.0007294590130975045,0.02886150331243935,0.12217194570135748,0.0005370240966571135,False,True,False
0,0.7691750856672678,0.00790472529025211,0.7531990443357812,0.7842152881588427,0.0012355660834371261,0.000951353261854729,4.0664080748759305e-05,0.0032795535232799902,0.0009346409742741727,0.004570767929944128,7.748216031278066e-08,0.02912226910341945,-0.8896092813731566,0.008103799780325997,-0.9021457474011514,-0.8766494127033728,0.07245901639344131,94.91435282909353,-719.38,456.56,34.57486486486487,0.08807914689605043,34.45,34.75,2.9697681350404815e-05,1.760988412800448e-06,2.6483376383093966e-05,3.531116851079195e-05,-0.01073314827503271,0.009370915858804325,-0.023361060067802624,0.007605343919732751,2.5482055900092654e-05,1.5110137604660102e-06,2.2724025807085277e-05,3.02987010761137e-05,0.03703500826138764,0.002196071122413856,0.03302655354014544,0.04403540472019392,0.011948232291082585,0.007760451528009021,5.5301715241986593e-05,0.02336108722877,0.10853589598643301,0.0025947700947700817,False,True,False
0,0.7773662855338148,0.005574097497538373,0.7565758007798898,0.7925587808784121,0.004525198814388206,0.007690513164470663,2.4815224218459255e-05,0.02729705193305485,0.0035683772216851106,0.02222611169153735,7.799178085299285e-08,0.20844277789249724,-0.8843805006282756,0.007593309066174459,-0.9018405675209968,-0.8758704408421892,-1.0626414027149325,121.32580937160235,-802.81,611.95,34.87072727272727,0.06459058202301429,34.73,34.97,3.229970803170946e-05,1.1867842815523585e-06,2.9793798430980708e-05,3.475943150281083e-05,0.003585246231145111,0.004401674901352147,-0.004776271954780931,0.010358225055353042,2.7714721425868923e-05,1.018318670977871e-06,2.5564529032970932e-05,2.9825283871799426e-05,0.040279910733787394,0.0014799999081806271,0.037154872732663616,0.04334735152144089,0.004391549235859899,0.003596881944602272,5.826430712995015e-05,0.010358305063627915,0.11764705882352942,0.0019738971665577147,False,True,False
0,0.7752753512720592,0.003934860323138292,0.7685595053461506,0.7850560185963557,0.001855708436080943,0.003157861057174403,3.129723502505234e-06,0.011242084685942223,0.0013313335680114665,0.008719178569337032,6.320862739098675e-08,0.07995925829146547,-0.883942152912396,0.0012673149455855513,-0.8851817982019645,-0.8818759154086633,0.8697230073487843,45.02276534740291,-224.72,193.17,35.075405405405405,0.05214985023570878,34.97,35.15,3.327691104520731e-05,6.471820109560472e-07,2.9242061422999583e-05,3.531116851079195e-05,-0.00022402719879510764,0.0023517438346656082,-0.002024059159768812,0.009669503515991842,2.855320916913349e-05,5.5531366190282e-07,2.5091111828656657e-05,3.02987010761137e-05,0.041498548689085285,0.00080707954400797,0.03646681953391059,0.04403540472019392,0.0019481240304310607,0.001335435931892084,5.9251837759271344e-05,0.009669586189281522,0.12210288298473713,0.0015526500526500517,False,True,False
0,0.767746176522777,0.002667866898591354,0.7627590045129564,0.7739950684112099,4.748162627237802e-05,9.437119399828564e-05,3.0888557024670574e-07,0.0003624197056626101,3.637988697913361e-05,0.0003174648565376021,9.176295961326256e-08,0.0032774420140038365,-0.8901061039274075,0.002583700901409833,-0.893178622497433,-0.8852010861507982,0.04113122171945701,16.86895763900586,-70.56,65.03,35.284,0.09367325605039402,35.15,35.45,3.3621005821184615e-05,1.3950613596860935e-07,3.3104220478867456e-05,3.420769449482971e-05,-0.004782651018994971,0.001809456375413264,-0.00684043155104002,-0.0020233908191606403,2.8848459233033314e-05,1.1970305402679534e-07,2.8405032258856593e-05,2.935186666748515e-05,0.04192765804347084,0.0001739735448417878,0.041283191925181796,0.04265929832268786,0.004782908182509032,0.001809318804944842,0.0020238767490589242,0.006840570629686892,0.12669683257918554,0.0028462457453283345,False,True,False
0,0.7727815202771177,0.004323165416350809,0.762267447676758,0.7792804871560255,0.0014377979074565183,0.0018977989689462208,3.1366871324226886e-07,0.007089912065953167,0.001215293586452456,0.005274893491987106,6.101737201960611e-08,0.03669516454194686,-0.8860902416929002,0.0037548758482490274,-0.890890528529293,-0.88117092211888,-0.065921945701357,81.61152032560689,-695.84,300.42,35.560630630630634,0.05581266195992819,35.45,35.63,1.7816611572204947e-05,1.0189251006510145e-05,5.517370079811242e-07,5.1311541742244554e-05,0.02544997336455017,0.020735839442162618,-0.013723636901003006,0.044047434851141,1.528751981261916e-05,8.74287324536963e-06,4.734172043142766e-07,4.402780000122772e-05,0.022218514266520353,0.012706682072279414,0.00068805319875303,0.06398894748403179,0.029432123496698322,0.014532016826579518,0.0013213777046892884,0.044047436795024576,0.11764705882352942,0.001653387153387147,False,True,False
0,0.774976828833827,0.001654097854225411,0.7709188217707031,0.7792716174406902,0.0004760202033155295,0.0004798069281894138,1.8001010889962837e-05,0.0016543184567768974,0.0002788440355617939,0.0016634224629813123,7.891671617793819e-08,0.01245260384968369,-0.8829180195603601,0.0011183812413585676,-0.8850906749513078,-0.8817865535378091,0.09637083097795365,17.429553783146638,-59.29,39.44,35.657272727272726,0.023419159838465275,35.61,35.71,1.3672966780364806e-05,1.0058788792139484e-06,1.1586477167603609e-05,1.544863622347148e-05,0.03763999644686331,0.0006778853161176187,0.036484196389723035,0.03854768764537396,1.1732070921847122e-05,8.630930316215747e-07,9.941761290599808e-06,1.3255681720799745e-05,0.01705111020936949,0.0012543986906619605,0.01444911717381363,0.01926548956508484,0.03764000079400127,0.0006778846468915896,0.036484201286245535,0.03854769193014416,0.13114754098360654,0.0006470256745485851,False,True,False
0,0.7716949531266845,0.0021038746538064113,0.7663359055599243,0.7775321601958279,2.9891565136108282e-05,7.210606347431787e-05,2.121083353843314e-07,0.00038228998129383006,2.2905324999551114e-07,1.1965261332460141e-07,1.0212760510885932e-07,5.793181999034743e-07,-0.8858261102425783,0.0019097189912141489,-0.8883446477705305,-0.8825484418744813,0.14477941176470632,24.086701362383348,-85.21,89.21,35.636846846846844,0.020713718861134114,35.61,35.66,1.3998142098417031e-05,4.25959088032012e-07,1.1586477167603609e-05,1.544863622347148e-05,0.03741233651272555,0.0003665765022152322,0.03648152302729035,0.03923507250351882,1.2011087170091172e-05,3.654936277453276e-07,9.941761290599808e-06,1.3255681720799745e-05,0.017456625725829136,0.0005311996636418779,0.01444911717381363,0.01926548956508484,0.03741234106550762,0.0003665763225359097,0.03648152653334154,0.039235076383180675,0.12669683257918554,-0.000535100035100003,False,True,False
0,0.7688005924808373,0.0015727550813551838,0.7638131877505152,0.7719966039847436,7.551145743434266e-05,0.00014424910058552772,2.0610905105203904e-07,0.0005612651774435038,5.808978141364258e-05,0.0004748723805083154,7.953545128457745e-08,0.004847534909152098,-0.8891407711266878,0.0006671230185547419,-0.8904501538246627,-0.8883796210386433,-0.44418315432447725,21.14329338920503,-113.77,57.8,35.62567567567567,0.01649361428066339,35.59,35.65,1.4189304295650154e-05,6.458711996783356e-07,1.1586477167603609e-05,1.544863622347148e-05,0.037313558737652346,0.0003271722793555242,0.03648486473033122,0.03854701930476579,1.2175113638636083e-05,5.541889220330969e-07,9.941761290599808e-06,1.3255681720799745e-05,0.017695017857196568,0.0008054448740845368,0.01444911717381363,0.01926548956508484,0.03731356343452615,0.0003271719412766716,0.036484870010655916,0.03854702325367849,0.12210288298473713,9.757809757809748e-05,False,True,False
0,0.7430754489063183,0.02497402606326149,0.7073404202808101,0.7705702945583834,0.008646710375370655,0.0068949781289527196,1.7452998204434022e-07,0.023712468993425898,0.0072363238103680515,0.022391660092987323,4.9001549373706155e-08,0.16458573235591306,-0.9250359645834966,0.027248920560309448,-0.9630964268975153,-0.8874695200066502,0.28873868778280565,64.56877456330008,-737.93,240.09,35.61690909090909,0.0324460159849316,35.55,35.66,1.4350155302604085e-05,2.88183765058803e-06,2.206948031924497e-06,2.5379902367131716e-05,0.030141503889820807,0.00803445188659968,0.00897075686750807,0.04542554627047157,1.2313131630762272e-05,2.472756955023186e-06,1.8936688172571063e-06,2.177719139845672e-05,0.01789560989335935,0.003593845591452236,0.00275221279501212,0.03165044714263938,0.0301415108397545,0.008034448957162654,0.00897080167440989,0.04542554883604406,0.12669683257918554,-0.0006751572256159623,False,True,False
0,0.7652132106606687,0.0029252019672089766,0.7588102532049428,0.7705516692244991,0.0009012169925170178,0.0017835156872312333,3.863125218912377e-06,0.009473897292345466,0.00011369317514876729,0.0011080839390515298,8.431028772348803e-08,0.011645358441852134,-0.893578120317631,0.004575590188537938,-0.9103236865620388,-0.8878692885129911,-0.14011871113623542,30.20011100631241,-67.99,57.5,35.53720720720721,0.030900755247350715,35.49,35.59,1.93157883744342e-05,1.1732440934690021e-07,1.8759058271358226e-05,1.9862532287320473e-05,0.034419831181488225,6.518748809981378e-05,0.03373799866018447,0.034426720199545666,1.657388646959076e-05,1.0067005306400142e-07,1.6096184946685404e-05,1.7043019355313955e-05,0.024088088682136615,0.00014631143819467379,0.02339380875760302,0.02476991515510908,0.034419840592056036,6.51874640322096e-05,0.033738008255573396,0.034426730147989706,0.12210288298473713,-0.0008116883116883005,False,True,False
0,0.7787041368292491,0.004157939906403575,0.7690413398367261,0.7849836621556827,0.0003017920245486343,0.00042129549355738325,9.165663837291185e-07,0.0013114773418238894,0.00026591788022568467,0.0012397506215338476,1.0109111025258005e-07,0.007635592368813372,-0.8787541151551737,0.004582377672216051,-0.8877628089818345,-0.8734504329908903,0.45248303167420817,36.20056595154192,-115.16,115.32,35.482,0.022698664229380282,35.45,35.53,1.608962480627308e-05,1.065302500577191e-06,1.4896899215490354e-05,1.9310795279339348e-05,0.03688404163470339,0.0008296427311540756,0.03442538351832933,0.03786297614966179,1.3805681119929564e-05,9.140813907293962e-07,1.2782264516485466e-05,1.656960215099968e-05,0.02006484548716557,0.0013285039476395152,0.018577436366331808,0.02408186195635605,0.03688404777757158,0.0008296417014697322,0.03442539239244047,0.03786298243130981,0.12217194570135748,-0.0004039402204539733,False,True,False
0,0.7835563097156544,0.011068004867282264,0.7154325878090071,0.789767937133148,0.017508523384587516,0.02114544361754637,4.132145107818419e-06,0.06259107453719386,0.017281814162748613,0.05747128391311227,2.378656394075307e-08,0.47224738145509426,-0.8905610649861505,0.023821091228869298,-0.9322838505674469,-0.8692112811426218,-3.619140271493212,60.683463737580716,-538.23,512.49,35.49684684684685,0.01747632070608118,35.47,35.53,1.7583184376520623e-05,4.752927300599095e-06,4.413896063848994e-06,4.524243465445219e-05,0.031128464516942303,0.01700541069532018,-0.02886882736086772,0.043361386674212486,1.50872279184862e-05,4.0782429353290805e-06,3.7873376345142126e-06,3.882021075377068e-05,0.021927414836278688,0.005927220370052994,0.00550442559002424,0.05642036229774846,0.034795960422613535,0.006865362133237305,0.0006432854897290123,0.04336138936191555,0.12669683257918554,0.00041295191295191816,False,True,False
0,0.7580898011203505,0.006835149783377884,0.749923687000979,0.785079981075374,0.0074463548560946636,0.013369590437522779,9.351395101171723e-07,0.05497980961861221,0.0023798800806867663,0.012001979118703697,6.954772211821873e-08,0.08395669585207229,-0.9078851523664789,0.007955987236143259,-0.9304896893634043,-0.9000382656754244,3.145771622385529,93.4897194700591,-766.81,526.23,35.51145454545455,0.021623821541261534,35.49,35.55,3.090475362671219e-05,1.2832266783475127e-06,2.372469134318834e-05,3.2000746462905206e-05,-0.017948352225225228,0.0026790197576884657,-0.02955353885657989,-0.01578645981604575,2.6517782657929172e-05,1.1010709410044851e-06,2.035693978551389e-05,2.745819785022804e-05,0.038540308665068024,0.0016002700706863571,0.029586287546380288,0.03990708552767574,0.017948399732471997,0.0026790114984111173,0.015786516130040555,0.029553560326398845,0.09496890898812888,0.0003931203931203636,False,True,False
0,0.7692780310313865,0.006947837231794134,0.7561611356389737,0.7840820621725814,0.004262574200617716,0.002316468043087688,0.00029385749689756456,0.009307220352370202,0.0027647205160959525,0.008846797671994058,5.375268817553458e-08,0.04957151428678616,-0.8927275882001027,0.004366086302501417,-0.9005050874421334,-0.8865467835675411,0.14472285067873195,145.26470070687103,-810.69,525.84,35.58405405405405,0.01739270371466639,35.55,35.61,3.081363810410419e-05,2.3818246361457848e-06,2.427642835116947e-05,3.64146425267542e-05,-0.015648574817471034,0.006917592725759928,-0.027490715941537146,0.01036223509900207,2.6439601105198906e-05,2.0437214544245025e-06,2.083035698982817e-05,3.124553548474225e-05,0.038426681473345124,0.002970295695345029,0.03027434074513332,0.045411511117699976,0.015792493563974525,0.006582147498339994,5.9251837759271344e-05,0.02749073717668896,0.0497737556561086,-1.316251316249589e-05,False,True,False
0,0.7433475271983735,0.006438705488383376,0.7338300056996058,0.7581346700946802,3.1960814163570464e-05,5.286081116199307e-05,2.5027128921609324e-07,0.0002593562029664236,9.36252338205491e-06,9.012090096508827e-05,1.2042549617611328e-07,0.0009450979820747706,-0.9163357554821332,0.006673684651378786,-0.9270682421417165,-0.9010394416440137,0.03400791407574889,18.23715503278904,-47.98,42.57,35.52854545454545,0.023494538254094928,35.49,35.57,2.7598084863019626e-05,2.130271474392905e-07,2.7035113391075092e-05,2.813858740703734e-05,-0.02462129008901455,0.00034139139965952664,-0.025425219664061714,-0.02404777658533931,2.3680499932543758e-05,1.82787659926565e-07,2.3197443011399553e-05,2.4144277420028106e-05,0.03441667007065778,0.0002656591964950293,0.03371460673889847,0.03509071313640453,0.024621316953831587,0.0003413908211327489,0.024047805168551806,0.025425244619954178,0.12662521198417184,-0.0005274665825124388,False,True,False
0,0.7422591202492205,0.006905349712531003,0.7302261998987443,0.7649314801799758,0.003379114181782472,0.003675391314834572,4.598655109370369e-07,0.01475040926792533,0.0028510848403279143,0.016429496433690054,5.4876828525785015e-08,0.14819360408032844,-0.9207493000659139,0.004505217730293209,-0.928197321310758,-0.9152807188662055,0.018076923076924288,132.27078440690636,-632.04,384.46,35.49018018018018,0.01543207886673283,35.45,35.53,3.0736869267020844e-05,2.810760624331506e-06,2.372469134318834e-05,3.8069853550697574e-05,-0.012827961031966312,0.012213154179552632,-0.03161769845283898,0.021369081257226037,2.637372970686106e-05,2.4117694073789516e-06,2.035693978551389e-05,3.2665787097685084e-05,0.03833094556446886,0.0035052077539205416,0.029586287546380288,0.04747567071395907,0.015505008242683284,0.008557347467851506,5.9251837759271344e-05,0.03161771852100298,0.11764705882352942,-0.0001597929097929197,False,True,False
0,0.7455531409471515,0.005133356988407696,0.7392014863127481,0.7615800679863578,0.001444751657070288,0.001499397144673757,2.0503008280085022e-05,0.0046466334656111484,0.0012621201201297558,0.0059973849949326394,6.223739526522998e-08,0.04542147251403607,-0.91519374694759,0.0038259907198976172,-0.9191913633482638,-0.9074628995909279,1.4548076923076936,133.6134200552665,-755.05,425.19,35.60945454545455,0.04163705926119067,35.5,35.66,3.062327635361296e-05,9.2769345471467e-06,-5.517370079811242e-06,5.351848977416905e-05,0.005459794986031997,0.004993396882569368,-0.007528484749793051,0.03375002879113155,2.6276261458914005e-05,7.960061323395897e-06,-4.7341720431427655e-06,4.592146881848483e-05,0.03818928755296088,0.01156896201895732,-0.006880531987530299,0.0667411602790439,0.006558964762006916,0.003422013055960288,5.9251837759271344e-05,0.03375005078609894,0.10407239819004525,0.0011169668417374877,False,True,False
0,0.7743879258509629,0.015561708252253057,0.7105305132812629,0.7993060830877532,0.019516874922847396,0.019307870148263902,0.00013901870322030602,0.060901062774712175,0.014681885274460732,0.06201204103416776,2.4206275761606832e-08,0.565041169947338,-0.9024166326285064,0.016765750279495385,-0.9239874723322544,-0.8802515001049113,-1.5125211984171851,120.05827111724786,-637.71,743.79,35.527657657657656,0.05368180587253306,35.43,35.61,2.964666856218574e-05,5.733130479595988e-06,-8.827792127697988e-06,4.6345908670414436e-05,-0.010044650288983964,0.01693644832565041,-0.023359055045978114,0.059849934841782866,2.5438284445153794e-05,4.9193049666013266e-06,-7.574675269028425e-06,3.976704516239923e-05,0.036971391879662814,0.007149599733736669,-0.01100885118004848,0.05779646869525452,0.017591111519828534,0.008834972713837038,5.5301715241986593e-05,0.05984993597215684,0.11758055398530243,-0.001570551070551082,False,True,False
0,0.7664038342417241,0.005185211936151849,0.757544281590609,0.7750930765067755,0.000708862032044336,0.0009470806736351261,5.37833830270424e-06,0.0038303870865833206,0.0004905693188135031,0.002334763869044158,7.619182565898538e-08,0.017544550673626112,-0.8924229478513376,0.004657351058539609,-0.899360683881757,-0.8844697982260257,0.11500000000000028,32.71841043740742,-258.3,126.1,35.332,0.05164806807403091,35.25,35.43,2.9133461604686557e-05,2.2261652494441453e-07,2.813858740703734e-05,2.9793798430980708e-05,-0.02251479691330833,0.0002880681257642041,-0.02267100184722508,-0.02198228030786388,2.499792789930068e-05,1.910158125136131e-07,2.4144277420028106e-05,2.5564529032970932e-05,0.03633138824818318,0.00027761779592013294,0.03509071313640453,0.037154872732663616,0.022514829647588833,0.0002880676539968308,0.02198231407735658,0.022671033366886625,0.13122171945701358,-0.001559948605820139,False,True,False
0,0.7456576897135537,0.010869424054263648,0.7255380954923433,0.761009681455849,0.0004934005173858276,0.0009494212262838622,1.5917633877152863e-06,0.0036989089119245614,0.00036415558531610885,0.0034453855451386495,1.0037044079311448e-07,0.036094251839401945,-0.9141069562091079,0.011199421237141263,-0.9341156833851353,-0.8993984708350271,-0.4416676088185423,124.66743131984974,-878.8,557.66,35.19162162162162,0.03369760014494054,35.15,35.25,2.90554444938295e-05,3.7313956054639656e-07,2.813858740703734e-05,3.089727244694296e-05,-0.022791202374997637,0.0006509829925858197,-0.024047108244731143,-0.019917452370996618,2.493098542131506e-05,3.201719025869228e-07,2.4144277420028106e-05,2.651136344159949e-05,0.03623409565786177,0.00046533015639949916,0.03509071313640453,0.03853097913016968,0.022791234577788592,0.0006509815567213789,0.01991749106103699,0.02404713796066842,0.08592425098925946,-0.0009234819234819439,False,True,False
0,0.7248288738572958,0.004985138307986726,0.7115608760842291,0.7372783210298636,0.002583512441310009,0.0041102920728382,1.576891610390025e-05,0.015455657132195356,0.001990330966112445,0.013371054713202562,4.9787853369145235e-08,0.1315504647643127,-0.9386131264475093,0.0014162462744987698,-0.940537261811246,-0.93444304055773,0.049326923076924316,124.95636990076595,-765.59,744.43,35.14854545454545,0.010737601224979272,35.13,35.16,2.8652876201807076e-05,2.227531263728823e-07,2.813858740703734e-05,2.9793798430980708e-05,-0.02393429420244302,0.0004696729830474711,-0.02473582978409234,-0.02198228030786388,2.4585562234909284e-05,1.911330231872403e-07,2.4144277420028106e-05,2.5564529032970932e-05,0.035732065891803284,0.00027778814709914006,0.03509071313640453,0.037154872732663616,0.02393432399835521,0.0004696721667621962,0.02198231407735658,0.024735857572233535,0.07239819004524888,-0.0001659040191149953,False,True,False
0,0.7056262063395088,0.0136335393257504,0.6456162996865203,0.7214792539091519,0.0055649666694595175,0.00989078322808077,2.2074849000953538e-06,0.035269086679558234,0.0075645469434909894,0.03753276705143983,3.1177220249922755e-08,0.31529413250842797,-0.9621742869626889,0.020608258010219274,-1.0318056970782652,-0.9407858857564333,-0.4295647258338044,84.0918377765418,-462.15,537.15,35.1318018018018,0.013361967614919737,35.11,35.15,2.857685985518506e-05,2.7037489943464307e-06,3.86215905586787e-06,4.358722363050881e-05,-0.02115819971526722,0.010991935063435024,-0.025424551323453545,0.03306932733906841,2.452033651000883e-05,2.319948220900953e-06,3.313920430199936e-06,3.739995914082785e-05,0.03563726838919931,0.003371757045974691,0.00481637239127121,0.054356202701489366,0.023130427552434187,0.005777369291468052,5.628924587130778e-05,0.03306936007164889,0.13566986998304126,-0.0001672516672516655,False,True,False
0,0.626108703004823,0.0905078555772326,0.5018385562056004,0.7531146187940376,0.1048955309558935,0.04438711198130143,0.014573483578273894,0.18841138092057708,0.08057725096366548,0.20019733642238904,3.635195100493149e-08,1.2644654805887332,-1.1466970211402978,0.09569233727747799,-1.2730902318578374,-0.959493657386162,0.6703846153846146,179.06391907914062,-1224.81,1405.45,35.12,0.01664524617371215,35.09,35.15,3.064512114465294e-05,3.333531757335286e-06,1.1586477167603609e-05,4.138027559858432e-05,0.010326785985719759,0.011820079630026833,-0.010972092446599057,0.03719163146611304,2.629500535274998e-05,2.860332481276151e-06,9.941761290599808e-06,3.550629032357074e-05,0.03821652947825087,0.004157138556233702,0.01444911717381363,0.05160398990647725,0.01361369951671069,0.0078061841780091975,6.517702153519847e-05,0.03719165296054123,0.06787330316742082,-0.000353537858125015,False,True,False
0,0.7751249713188058,0.008943582598991159,0.7516981272486615,0.7863447583574614,0.006253798421219457,0.011133032391367726,1.0552607203441419e-05,0.048634996086445365,0.0016343032423036044,0.010929612025910723,5.96856006285229e-08,0.10530658149290273,-0.8884655036389432,0.019718378612193176,-0.9554963956596463,-0.871151049001812,-0.04697398190045267,15.091972341332928,-63.88,45.2,35.12225225225226,0.016878425426598117,35.09,35.15,3.421393586369828e-05,5.838231978748339e-08,3.420769449482971e-05,3.475943150281083e-05,-0.0016459980084138398,0.0003426630723460823,-0.002022722478552469,-0.0013340009391912674,2.9357222065724005e-05,5.0094871678642355e-08,2.935186666748515e-05,2.9825283871799426e-05,0.04266708172991356,7.280668379920357e-05,0.04265929832268786,0.04334735152144089,0.0016466420693872653,0.00034253418234984694,0.0013347869760376057,0.0020232246350024904,0.13122171945701358,0.0003836433836433839,False,True,False
0,0.7878301214591368,0.0023420649671610214,0.7835318928032229,0.7923979805464696,6.703947558455574e-05,0.0001187604969946356,5.42666759143953e-07,0.00045135757562234227,6.526779817435138e-05,0.0005089034254537334,9.457853141553918e-08,0.004891855173375371,-0.8685597552755052,0.002034563613105594,-0.8712347904994995,-0.8661596215924849,0.176342566421707,74.379536612987,-725.29,341.9,35.15654545454546,0.019556381141956288,35.11,35.21,3.4209566905490274e-05,5.567077120647428e-08,3.365595748684858e-05,3.475943150281083e-05,-0.0019612312933451007,0.0002070248456669935,-0.0033988288760585287,-0.0013340009391912674,2.9353473286956808e-05,4.77682310328011e-08,2.8878449463170872e-05,2.9825283871799426e-05,0.04266163334485557,6.9425200143495e-05,0.04197124512393483,0.04334735152144089,0.0019617571345375484,0.0002069500157156695,0.0013347869760376057,0.0033991277450500152,0.13114754098360654,0.0004811216554335688,False,True,False
0,0.7909184294040355,0.0018103564885974812,0.7867167517985131,0.7962440903221533,0.0003208315247322838,0.0005239986145338453,4.157166539149586e-07,0.0020573590079978545,0.0002618861184949257,0.0016983491410047452,8.559868021275514e-08,0.016294812517720126,-0.8656030402135186,0.0002565251790854114,-0.8661493540953924,-0.8653067274648757,-0.04887443438914006,16.972001909535443,-86.79,33.85,35.23432432432433,0.036720606590890804,35.18,35.31,3.421143931615084e-05,5.2382780412442434e-08,3.365595748684858e-05,3.475943150281083e-05,-0.0021604842501991173,0.00032873052713031445,-0.002710775677305499,-0.0013346692797994387,2.9355079906428458e-05,4.4946974914388144e-08,2.8878449463170872e-05,2.9825283871799426e-05,0.04266396836702328,6.532485423488518e-05,0.04197124512393483,0.04334735152144089,0.002160965444626746,0.00032865847993326686,0.001335430187198069,0.0027111503962544397,0.13122171945701358,0.0010456300456300484,False,True,False
0,0.7869139790734186,0.0025439469672238367,0.7800858368397714,0.7931874761379724,3.837946664773546e-05,9.061261558757743e-05,2.515340504568043e-07,0.0004613566567869826,3.6502756351505933e-07,4.7096859113101706e-07,8.255858093024033e-08,2.779801421674102e-06,-0.8696272810151005,0.0020280695069195753,-0.872128686203093,-0.8658457176694161,-0.4589598643301303,51.92443269920915,-133.28,170.38,35.37774774774775,0.03909626079969287,35.31,35.47,3.4179016639047635e-05,1.5921044581600053e-07,3.3104220478867456e-05,3.531116851079195e-05,-0.004442994062039653,0.0007573733008998536,-0.00546365681292579,-0.0027094389960891562,2.932725967155469e-05,1.366103108284138e-07,2.8405032258856593e-05,3.02987010761137e-05,0.04262353510557753,0.00019854614596079835,0.041283191925181796,0.04403540472019392,0.004443229990818315,0.0007573282386798264,0.002709838475525269,0.0054638367890840365,0.12662521198417184,0.0011281151281151186,False,True,False
0,0.780727193434337,0.008943003089722096,0.7450740163237071,0.7910590051783315,0.011547012405467173,0.01349202927432443,2.28459627786737e-07,0.04199481699282499,0.010571245089631972,0.03341592312762761,2.700734624827561e-08,0.22356018422262808,-0.8876953133647189,0.015383339182260505,-0.9103570811465338,-0.8716634604068989,0.6240497737556544,157.76984283759793,-800.95,689.53,35.498363636363635,0.030815439735708258,35.45,35.55,3.226101154472436e-05,3.011376661355811e-06,2.5931639375112838e-05,4.027680158262207e-05,-0.009207608759604332,0.009759580244664532,-0.027490047600928973,0.012430404738910189,2.7681517956788057e-05,2.583907730556116e-06,2.2250608602771e-05,3.455945591494219e-05,0.04023165360898797,0.0037553894600577016,0.03233850034139241,0.050227883508971186,0.010519400848955918,0.008327315871479658,5.135159272470183e-05,0.02749006974985539,0.08144796380090498,0.0008360119919752924,False,True,False
0,0.7791052830641912,0.003066523062209922,0.7715976040407373,0.7877394385755763,0.004503915178061615,0.005922189999562249,2.6201460378357055e-05,0.025310332587568894,0.0017921409517066141,0.0076642756835666286,7.470580160040541e-08,0.046022022924706196,-0.88246232286299,0.004916768778490583,-0.900126312029264,-0.8780248735932383,-0.2985585076314301,14.677400973433668,-31.06,21.62,35.464594594594594,0.037894201614106754,35.39,35.53,2.6320476655624427e-05,2.518198193922143e-07,2.5931639375112838e-05,2.6483376383093966e-05,-0.027508925105079206,0.00011191255739558915,-0.028178769140290178,-0.027490047600928973,2.2584249913051312e-05,2.1607366039086911e-07,2.2250608602771e-05,2.2724025807085277e-05,0.03282340661155433,0.0003140362704256936,0.03233850034139241,0.03302655354014544,0.02750894696985978,0.00011191243265475688,0.02749006974985539,0.028178789856934488,0.11305822498586772,-0.0011002106002106183,False,True,False
0,0.7765975816310396,0.003692529283108893,0.7708851252305354,0.7870214574267604,0.0011310968302429593,0.002119359366781251,5.568803680002715e-06,0.008244395409091082,0.0008709312861661331,0.006748872600880951,8.939263319851509e-08,0.06688716352726547,-0.881645103842542,0.001916559366801161,-0.8845037423819517,-0.8793760679135243,0.16372737556561087,58.40006143708634,-629.3,231.95,35.37163636363636,0.02203114029320358,35.33,35.41,2.6593848612067567e-05,3.674099372986387e-07,2.5379902367131716e-05,2.7586850399056214e-05,-0.027156783952338538,0.0005184886696839419,-0.02886749067965138,-0.025424551323453545,2.2818816355912914e-05,3.152556069959245e-07,2.177719139845672e-05,2.367086021571383e-05,0.03316431984804056,0.00045818493042001397,0.03165044714263938,0.0344026599376515,0.02715680658218455,0.0005184877593613506,0.025424577309030364,0.028867510050665412,0.08144796380090498,-0.0005017694925951848,False,True,False
0,0.7843306723483389,0.0051025412543739615,0.7759176030393093,0.8007161651419973,0.0029613338636090246,0.005181397525027734,1.7771853257522776e-06,0.02009206860705337,0.0022758294627937513,0.014065836636549062,6.779118602584511e-08,0.12960685868885813,-0.8753242957606131,0.001600770754998752,-0.8795361583528991,-0.8731887297560279,0.14390837104072426,78.71399254341014,-594.26,510.4,35.33396396396396,0.0075413140016467395,35.33,35.37,2.7460774747911206e-05,7.248058341698332e-07,2.6483376383093966e-05,2.9793798430980708e-05,-0.02590494026964525,0.0011623464841587167,-0.028177432459073833,-0.02335838670536994,2.356268117128907e-05,6.219186799503204e-07,2.2724025807085277e-05,2.5564529032970932e-05,0.0342454351116921,0.0009038816781572023,0.03302655354014544,0.037154872732663616,0.025904965671325747,0.0011623439633421026,0.023358418485412324,0.028177454977417426,0.15384615384615385,-4.563004563003866e-05,False,True,False
0,2.420468973854814,0.08729841389194966,2.262383089820403,2.619792797809077,0.1270135524037029,0.0745439892018604,0.017409255389256216,0.29348421661317203,0.10445216696696001,0.27794531372683695,2.9301224557798378e-08,1.9248739711753455,0.7526878456617783,0.06102028439148553,0.6737989876807693,0.823856179427761,1.8913114754098348,151.33441687599557,-514.36,412.33,34.17927927927928,0.018474144670162146,34.16,34.21,2.2614983010751738e-05,3.539885841016404e-07,2.1517743311263846e-05,2.427642835116947e-05,0.01470119788567921,0.0006347550028995652,0.013100412741242592,0.016540678735007745,1.9404756029943937e-05,3.037394327739221e-07,1.8463270968256787e-05,2.083035698982817e-05,0.02820240653645894,0.0004414475992908602,0.02683407475136817,0.03027434074513332,0.014701228161113031,0.0006347534478869278,0.01310044665126252,0.01654070559215663,0.058790276992651214,0.00042014742014745773,False,False,True
0,2.544385929302377,0.060763200886703776,2.454512305639748,2.6988016552568603,0.12008418149486849,0.04442072589247853,0.049068851674805875,0.23685723358583408,0.10720302480139708,0.25880514171744046,5.005224545939768e-08,1.363808478671129,0.8922348984899292,0.04424023829752182,0.822458355083964,0.9415184391975959,-2.710050904977378,208.22496503787164,-1049.49,499.59,34.22218181818182,0.01540771986785324,34.18,34.25,2.153334673343526e-05,3.514559637252483e-07,2.04142692953016e-05,2.3172954335207218e-05,0.016752626312811235,0.0006689836803317554,0.01378712925877928,0.018604169990658663,1.847665946385391e-05,3.015663212355683e-07,1.7516436559628233e-05,1.9883522581199616e-05,0.026853533269432454,0.0004382892511539837,0.02545796835386211,0.02889823434762726,0.016752650397811365,0.0006689824169823305,0.013787158412955868,0.018604192718348327,0.0995475113122172,5.337781484570028e-05,False,False,True
0,2.7341781292416036,0.07404152692740544,2.5923516704115284,2.8763394886952254,0.18941824825710954,0.0799857054395512,0.05248920230485325,0.3621172945531123,0.13180916392213968,0.2726453834986039,3.714791407816165e-08,1.5260511114591448,1.0263024105573957,0.04273400409334733,0.9334995874764533,1.077607490936296,-0.03811758055398547,185.4022321701737,-610.18,506.67,34.18945945945946,0.027890625268842437,34.13,34.23,2.110144400773058e-05,2.9692325761831526e-07,2.04142692953016e-05,2.2069480319244968e-05,0.017324961903966637,0.0005198629536443589,0.015849952173822027,0.019290886508195347,1.810606590572554e-05,2.5477460544455595e-07,1.7516436559628233e-05,1.8936688172571062e-05,0.026314921489413116,0.00037028329481831934,0.02545796835386211,0.027522127950121197,0.017324984239129322,0.0005198623193729329,0.01584997499936155,0.019290906289760778,0.04974561899378179,-0.0007144612144612285,False,False,True
0,2.7694298113425955,0.07557709244314464,2.650380258997518,2.9354751943336024,0.16541500680231758,0.0931242764036529,0.022537669793915298,0.3700360666667812,0.13755343335501152,0.31307642948005415,6.314106570926015e-08,2.214043145625736,1.0877147431358358,0.026189406473084494,1.0495022284027384,1.1240193747277376,0.7498812217194549,181.27853273138692,-595.76,455.35,34.11145454545455,0.02179286827358026,34.07,34.15,2.0954771839319308e-05,2.5433547199011325e-07,1.9862532287320473e-05,2.2621217327226096e-05,0.017482009060194228,0.0004702305173284123,0.015849283833213854,0.018603501650050487,1.7980214047112582e-05,2.1823221274950424e-07,1.7043019355313955e-05,1.941010537688534e-05,0.026132011419608858,0.00031717345860030814,0.02476991515510908,0.02821018114887423,0.017482030881038963,0.00047023004666245887,0.0158493054425256,0.01860352325633731,0.12669683257918554,-0.0005765164664246992,False,False,True
0,2.954669223832136,0.14965775471257264,2.7309955960864842,3.2389309695410757,0.22857220271959525,0.11647297735546448,0.05588657188310513,0.5321923164235894,0.16647717805309592,0.4448250549703719,3.263743142412068e-08,3.0877953968838927,1.2233314586776838,0.08653986596817277,1.0741584521720402,1.3980812984193296,-1.0730316742081436,199.66418543498503,-651.47,597.64,34.05072072072072,0.02263190474094341,34.0,34.09,2.0926685679410768e-05,3.053820956794425e-07,1.9310795279339348e-05,2.2069480319244968e-05,0.017260147932397867,0.0006698478758090126,0.015161898975069,0.01997960804755655,1.795611475503776e-05,2.6203270016852464e-07,1.656960215099968e-05,1.8936688172571062e-05,0.026096986087093148,0.0003808320354347747,0.02408186195635605,0.027522127950121197,0.01726016999636357,0.0006698470200612857,0.015161922836439282,0.01997962816570014,0.1085972850678733,-0.00045472095472097945,False,False,True
0,3.123848242151347,0.08939201725639342,3.005741021982748,3.3363630535488964,0.13716340965751483,0.07947669469331742,0.037214530408377466,0.35606442863940907,0.09878879920062764,0.2506662404912841,4.822024735062769e-08,1.6793130646630967,1.495588924459778,0.04788332793173986,1.4013255498919757,1.580562443750596,0.4293386093838302,191.57493695763085,-752.27,579.69,33.95690909090909,0.04434529762200679,33.89,34.05,2.101089338189814e-05,3.1170239567036286e-07,1.9310795279339348e-05,2.2621217327226096e-05,0.0165970376797711,0.0005508913766829231,0.013786460918171109,0.017916116791905634,1.8028369061920623e-05,2.674558251517076e-07,1.656960215099968e-05,1.941010537688534e-05,0.02620199876200522,0.0003887138750846909,0.02408186195635605,0.02821018114887423,0.016597060801216413,0.0005508906067855411,0.013786488597772753,0.017916140392431723,0.06331260599208592,-0.0013333633884092765,False,False,True
0,3.231785543664022,0.06074855935184425,3.121329454485137,3.4586913554953065,0.12701082621293436,0.06354657138657367,0.025379077107166234,0.2804099453458243,0.12062238833564835,0.28937989870192626,5.3761546325858944e-08,1.6163727495682316,1.621734144413719,0.03713362862897548,1.5820094441738812,1.741190662035963,0.8409954751131217,187.54073911398078,-722.97,685.94,33.851081081081084,0.029828337696386258,33.81,33.91,2.101843380177867e-05,1.1508837733411298e-06,1.2689951183565858e-05,3.420769449482971e-05,0.015400024743540018,0.0066389733379022264,-0.02956623732813515,0.019980276388164724,1.8034839109148847e-05,9.875142877572992e-07,1.088859569922836e-05,2.935186666748515e-05,0.026211402173311128,0.001435229557172305,0.01582522357131969,0.04265929832268786,0.016675027474698942,0.0017704924212521766,5.135159272470183e-05,0.02956624537250934,0.1085972850678733,-0.0006661986661986561,False,False,True
0,3.588492902009191,0.04985876480811121,3.462430375726745,3.709927027292344,0.14255741395923388,0.08100405632464022,0.026987870881889066,0.341734752142788,0.09461774272572163,0.21794348270540723,4.5020441596932415e-08,1.0884996241789935,1.98748919446913,0.09871102953414367,1.7470183175785396,2.071592980558084,-1.3410966647823652,160.20951530008463,-988.99,754.7,33.856272727272724,0.024150107447822453,33.81,33.91,2.0632093068814504e-05,7.150789170517348e-07,1.6552110239433728e-05,2.5931639375112838e-05,-0.022680763097894876,0.0005801819255836843,-0.02611995626889646,-0.019244771006231527,1.7703339958164074e-05,6.135725116816792e-07,1.4202516129428297e-05,2.2250608602771e-05,0.025729609266039493,0.0008917515575738416,0.020641595962590898,0.03233850034139241,0.02268077941898059,0.0005801816052279403,0.019244784202658637,0.026119971657617005,0.09949123798756358,0.0004884701214976176,False,False,True
0,3.7897258167668197,0.06135800345755602,3.649647172304684,3.93577184318489,0.18658379641806366,0.07683483760660316,0.05060634771569992,0.38955975825034017,0.13538916694547531,0.3188896154914425,6.602443924919044e-08,1.6145109724466682,2.1592099721049958,0.038427493765477515,2.0652602923282877,2.208050542025636,0.6807692307692301,109.83238463200358,-716.75,469.57,33.87567567567567,0.019982793581278805,33.84,33.91,2.0931678774505617e-05,5.550319845898807e-07,1.7655584255395975e-05,2.372469134318834e-05,-0.021925409697122977,0.0005847373295973563,-0.025431234729535256,-0.019241429303190675,1.796039907362884e-05,4.762444546017034e-07,1.514935053805685e-05,2.035693978551389e-05,0.026103212812873717,0.0006921622564429734,0.02201770236009696,0.029586287546380288,0.021925427070679817,0.0005847368162822272,0.019241447102917763,0.025431251355936865,0.16289592760180996,-0.0001732186732186653,False,False,True
0,3.723561344012518,0.03951786698936477,3.6468783709722676,3.81170510214285,0.12337843161213338,0.04696301852921502,0.031096430064489283,0.2073865004205009,0.09810854053683109,0.22143151705993136,6.33158308005477e-08,1.1715962808374485,2.1516413862535155,0.02572779849090653,2.117763689497333,2.206047434165333,-0.30839366515837113,73.8637710751412,-591.45,225.62,33.82690909090909,0.018059303660641672,33.79,33.87,2.0745061845335533e-05,4.906299656821942e-07,1.8759058271358226e-05,2.372469134318834e-05,-0.021741169002255752,0.000456661653851857,-0.02405579667263737,-0.019929482501943704,1.7800272666287246e-05,4.2098438811634065e-07,1.6096184946685404e-05,2.035693978551389e-05,0.0258704889368249,0.0006118486025198293,0.02339380875760302,0.029586287546380288,0.021741186203291803,0.0004566613066063682,0.019929499687146635,0.02405581338181944,0.17647058823529413,-0.0003952843585871288,False,False,True
0,3.5413905110714716,0.06816028372739967,3.415117594315865,3.6658166969519215,0.029822084519572918,0.019476693764775455,0.0027659884275225643,0.09513825694045576,0.017502779197290513,0.060224662557075766,5.894154186947276e-08,0.3683925853743082,2.050221059643501,0.06527154434454532,1.9344932524857874,2.1174218068357553,0.25235726399095587,99.3648655006754,-512.25,430.28,33.760270270270276,0.019607951052360417,33.71,33.79,2.0414269295301595e-05,7.973001232891318e-07,1.6552110239433728e-05,2.3172954335207218e-05,-0.021329799318570517,0.0006573388292437813,-0.024748528255647596,-0.019242765984407016,1.7516436559628237e-05,6.841223081049558e-07,1.4202516129428297e-05,1.9883522581199616e-05,0.02545796835386211,0.000994286937906547,0.020641595962590898,0.02889823434762726,0.021329816321015375,0.0006573383362781432,0.019242781860222,0.024748539190082807,0.20802713397399658,-0.00040365040365040837,False,False,True
0,3.5129465939029645,0.06460832497193472,3.4045779599205357,3.7051274643473247,0.10572500409921282,0.05715260991116749,0.00833199405205218,0.269941605793078,0.08945826125421497,0.23161933104649346,6.006221564547332e-08,1.3522387404812335,1.9437702340867613,0.02057553627345677,1.894721807603818,1.9762073192730651,0.0476923076923083,80.14385389497438,-565.71,427.47,33.666,0.05037838476346809,33.61,33.75,2.3421360816176096e-05,1.412932516185353e-06,5.517370079811242e-06,3.0345535438961837e-05,0.006761796800989478,0.008616874302725983,-0.02199297375759462,0.024799990482476785,2.0096667431105818e-05,1.2123648622825215e-06,4.7341720431427655e-06,2.6037946237285214e-05,0.029208013955210638,0.001762021983881058,0.006880531987530299,0.03784292593141665,0.010452631787964402,0.003262500597529883,5.2339123354023015e-05,0.024800012060874673,0.14932126696832582,-0.0013420192502760912,False,False,True
0,3.442509135865027,0.0676040218937872,3.2931558535200574,3.572533758071004,0.0860165083281665,0.039425103597272845,0.025054014676831157,0.19945630836354317,0.06858198290050638,0.1850465971257541,4.082973148467062e-08,1.4875177672461901,1.888062080723582,0.06706752759937702,1.7976743125222614,1.980740169175584,-0.23886941775014098,63.397592181583825,-528.34,239.27,33.64963963963964,0.0124993038299167,33.61,33.68,2.339764361447555e-05,8.07073320576408e-07,1.7655584255395975e-05,2.9242061422999583e-05,0.0097077877063482,0.0010371361557945506,0.004839764312557206,0.012419711289179448,2.0076316917798193e-05,6.925081870110743e-07,1.514935053805685e-05,2.5091111828656657e-05,0.029178437007752925,0.001006474772977029,0.02201770236009696,0.03646681953391059,0.009707837434177437,0.0010371294668230545,0.004839831201563964,0.012419768825230808,0.19898247597512717,-3.3345033345116494e-06,False,False,True
0,3.4718879926895876,0.09608003160147208,3.1804198971405078,3.6343349871326365,0.1463724588146581,0.09489432817368922,0.04345249827471716,0.4577524917245269,0.13608342104554097,0.2991089856590946,3.172331242140558e-08,1.6975239116052676,1.8592201770537788,0.1309928730840308,1.5532311061992892,1.975061588235085,1.1762047511312215,195.7551749955551,-1337.14,669.23,33.66072727272727,0.011629533024387349,33.65,33.68,2.355929506817138e-05,6.836142844701218e-07,2.0966006303282724e-05,2.813858740703734e-05,0.009052620632668859,0.000951282262603991,0.005532495895567435,0.011726979706169219,2.021502173218439e-05,5.865743256327325e-07,1.7989853763942512e-05,2.4144277420028106e-05,0.029380027254898897,0.0008525130421539948,0.02614602155261514,0.03509071313640453,0.009052674614577134,0.0009512754954065555,0.005532580155294035,0.01172702533967991,0.14479638009049775,0.00026003651691724653,False,False,True
0,3.6190097782431385,0.06058183050254341,3.484205669940426,3.7760315349273483,0.28182035941813677,0.18878382618245027,0.046998727655397955,0.6234537167346481,0.2059041323837843,0.2969676176934378,5.3619001905147456e-08,1.4368756899351638,1.881127179187959,0.1614969495528766,1.5504863423415358,2.0441051922680145,-1.3911023176936106,221.95457324447017,-1080.66,788.05,33.697027027027026,0.031147584018219356,33.65,33.77,2.4295131300592557e-05,4.027250296727142e-07,2.2621217327226096e-05,2.6483376383093966e-05,0.007912886631475888,0.0005254821790420584,0.006220549094320464,0.009664825131734642,2.0846405030652385e-05,3.4555767493769947e-07,1.941010537688534e-05,2.2724025807085277e-05,0.030297664582379185,0.0005022252284619263,0.02821018114887423,0.03302655354014544,0.007912951704611924,0.0005254776736423301,0.006220624034221487,0.009664888130629504,0.11305822498586772,0.000872674622674636,False,False,True
0,3.7525871012946594,0.1975441690013549,3.441823224784774,4.071536331950735,0.25589949494193154,0.11257357816162865,0.10346383686873355,0.5494730738905441,0.18253437456456717,0.37352304486307375,2.890774020158915e-08,2.017445800932393,2.0502851669891364,0.18646972735746328,1.8449534196002477,2.323379528340927,2.1054015837104036,218.152385813094,-1450.07,778.13,33.776,0.02072980392194316,33.73,33.81,2.339577120381498e-05,1.9380364073207933e-06,8.276055119716864e-06,4.4138960638489935e-05,0.011013841170698603,0.0043074806255354895,-0.00549440048090167,0.034430061902586524,2.0074710298326536e-05,1.6629295561853692e-06,7.101258064714148e-06,3.7873376345142124e-05,0.029176101985585214,0.002416861892654701,0.010320797981295449,0.055044255900242395,0.01102632661458422,0.004275494634703562,0.0007015706997474796,0.03443007480514099,0.06787330316742082,0.00017158442846516205,False,False,True
0,3.951460122752898,0.08311298737879548,3.8409433744909984,4.178111226653143,0.23309621515756873,0.08785699881598502,0.13163342556285662,0.4738733387190298,0.18814006483933637,0.3262095968865716,3.229257572456845e-08,2.03611573892619,2.2860107729799704,0.0169836694921007,2.260145905986149,2.313509044482198,-2.006776018099548,130.34873476006683,-548.01,442.16,33.770180180180176,0.032078936220800845,33.71,33.83,2.3373926412775006e-05,3.219778477422288e-07,2.2069480319244968e-05,2.427642835116947e-05,0.014262608885261797,0.0005115265140736227,0.013099744400634421,0.015853962217471054,2.0055966404490565e-05,2.762726631063124e-07,1.8936688172571062e-05,2.083035698982817e-05,0.029148860060295215,0.0004015280556895981,0.027522127950121197,0.03027434074513332,0.01426264217863588,0.0005115255943728463,0.013099776678328276,0.015853993038316135,0.0995475113122172,0.0008487188487188769,False,False,True
0,4.075127597841763,0.10203876565694193,3.9111094860428235,4.354617191024575,0.20518063298188083,0.10257017826308963,0.07562147436696331,0.46455583406233114,0.18848478443863345,0.36783804787251145,4.534145148227253e-08,2.000621188106426,2.446222778512083,0.0705891027042625,2.2890342079794705,2.5187405011118473,8.14513849632561,203.22851442151725,-784.5,664.26,33.77981818181818,0.02262505788656306,33.73,33.81,2.3207906000871185e-05,6.346836235848623e-07,1.9862532287320473e-05,2.5379902367131716e-05,0.013725352679672016,0.0010189284056134219,0.00897075686750807,0.016543352097440428,1.991351281133717e-05,5.445894372774785e-07,1.7043019355313955e-05,2.177719139845672e-05,0.028941821428091253,0.0007914932134091481,0.02476991515510908,0.03165044714263938,0.013725386975142822,0.0010189256630915402,0.00897080167440989,0.01654338444540526,0.10853589598643301,-0.0005438766539683983,False,False,True
0,4.192788274611428,0.1917827430377114,3.9897049566547262,4.756951428506037,0.2740769456576121,0.19883755937262232,0.05674165998049406,0.8493074105234562,0.17567319329173536,0.457047456942744,4.764889949271378e-08,3.8442149480416976,2.5034485086200595,0.00728125667630974,2.4951633905320763,2.5187112871983435,-7.6654581447963785,343.1463242116067,-1617.86,1789.0,33.745135135135136,0.014824112106778952,33.71,33.77,2.2515114056460495e-05,3.6822899602177406e-07,2.0966006303282724e-05,2.3172954335207218e-05,0.015229824431157639,0.000642590798176432,0.013100412741242592,0.017228063593152605,1.93190636068249e-05,3.159583992416272e-07,1.7989853763942512e-05,1.9883522581199616e-05,0.028077863226037107,0.0004592063517969887,0.02614602155261514,0.02889823434762726,0.015229853381444499,0.0006425896883804386,0.01310044665126252,0.017228088136233537,0.08144796380090498,-0.00023271323271325847,False,False,True
0,4.089328201478044,0.0631467402586902,3.9607710035757635,4.252077584185298,0.1775736728505255,0.07477672720553866,0.07444602916529301,0.47404508657996025,0.16500846213273535,0.41126026182002157,5.764356370008272e-08,2.239100896633757,2.489144410295702,0.04002017031531899,2.372570550404928,2.515355567474697,1.307207461842851,255.95281441599508,-1039.89,800.81,33.699189189189184,0.020455500933185003,33.66,33.73,2.240987399874519e-05,7.626750636091128e-07,1.7103847247414853e-05,2.7035113391075092e-05,0.015539830108723765,0.0007963942390169437,0.01034151654014876,0.018606843353091346,1.922876251557174e-05,6.544123217966044e-07,1.4675933333742575e-05,2.3197443011399553e-05,0.02794662178799595,0.0009511071570957107,0.02132964916134393,0.03371460673889847,0.01553985823883927,0.0007963934101766268,0.010341541097669158,0.018606870849641147,0.12210288298473713,-0.00036003861003860635,False,False,True
0,4.324386793387811,0.10065606032587232,4.220029870617496,4.681748100916427,0.3167058851394442,0.22135581330414175,0.059703281688188795,0.9321535093916352,0.20622255211903048,0.4935395070738163,5.981830497603369e-08,3.6374489380032458,2.601361178888416,0.16241967804579546,2.3512549765107615,2.7569603858997103,-4.0814592760181,298.3478881706911,-988.07,784.06,33.65381818181818,0.009480237114463273,33.63,33.68,2.1248740313028708e-05,3.9946437473024827e-07,1.9862532287320473e-05,2.3172954335207218e-05,0.016659659011941396,0.0005340977829077234,0.014473845776315969,0.018604838331266832,1.8232453304162383e-05,3.427598743102888e-07,1.7043019355313955e-05,1.9883522581199616e-05,0.026498609899939938,0.0004981589722008096,0.02476991515510908,0.02889823434762726,0.016659682565227887,0.0005340972468777993,0.014473870771998769,0.01860486220868727,0.13574660633484165,-0.00012442801433625416,False,False,True
0,4.302900514843367,0.0405835753739639,4.214481581586182,4.420233172024976,0.1211930014982006,0.05052668460538297,0.030721429472205727,0.24240791823612443,0.09465738428467757,0.26560551451501696,4.302702416580928e-08,1.975842517005347,2.774425789519966,0.019046573334634706,2.7450528957487155,2.8067714397935966,4.294793668739402,255.34178351002436,-1317.83,1304.01,33.63936936936937,0.011384142022948116,33.61,33.65,2.1494650246450158e-05,3.2022832317165076e-07,1.9310795279339348e-05,2.3172954335207218e-05,0.016766589571249976,0.0005186321150553501,0.013786460918171109,0.019292891530019864,1.8443455994773045e-05,2.747714858803858e-07,1.656960215099968e-05,1.9883522581199616e-05,0.02680527614463303,0.0003993462807503239,0.02408186195635605,0.02889823434762726,0.016766613517329776,0.0005186315071404456,0.013786488597772753,0.019292914555887514,0.14019219898247595,-8.07300807300709e-06,False,False,True
0,4.280007678721039,0.08255917157795119,4.100217878711023,4.5157126581119345,0.15268301554147587,0.12428626539620082,0.021426205674917483,0.4932134380183513,0.1127864424719415,0.3272269311906366,4.426603839036147e-08,2.4012241706937303,2.7181237953414192,0.06968062977524735,2.6196460625185303,2.820091686486014,-2.329309954751132,245.91340641894539,-825.68,613.99,33.62945454545454,0.016469953941010335,33.61,33.66,2.128743680001381e-05,6.889921502506037e-07,1.82073212633771e-05,2.869032441501846e-05,0.01641452855889898,0.0012653948548601117,0.009655468363220244,0.018605506671875004,1.8265656773243252e-05,5.911887961977751e-07,1.5622767742371126e-05,2.461769462434238e-05,0.026546867024739358,0.0008592196028870966,0.022705755558849988,0.03577876633515756,0.016414552751167683,0.0012653922450146613,0.009655500002723012,0.018605531727351094,0.07239819004524888,-0.0004397358158825937,False,False,True
0,1.6164338380076542,0.049883734988456795,1.5448369847613592,1.7212825561352554,0.020704392319622497,0.021395856650740203,0.00023280019398287593,0.07331450208657136,0.016901645736341463,0.06054325121596952,4.870061243167356e-08,0.45596734571491254,-0.0017797048769339074,0.03619203137280734,-0.06694050775926347,0.0564679034952702,1.033199547767099,111.34154034393372,-845.72,661.49,34.461621621621624,0.01988789218414655,34.43,34.5,3.4772523567406984e-05,2.3800778980396476e-07,3.3104220478867456e-05,3.64146425267542e-05,-0.001399291824550005,0.0004378443613014244,-0.0033988288760585287,0.0014188801964290238,2.9836517500376373e-05,2.042222668120675e-07,2.8405032258856593e-05,3.124553548474225e-05,0.04336367820751299,0.0002968117395314533,0.041283191925181796,0.045411511117699976,0.0014169865710930746,0.0003793676305670798,6.023936838859253e-05,0.0033991277450500152,0.08140192198982475,-0.00029247104247104853,True,False,False
0,1.5042626807741493,0.026393546448053654,1.4618101702067143,1.553129161900531,0.0068603189061761894,0.006234762592904508,7.301966980023192e-05,0.022078359925051104,0.003859129186890214,0.01631692575901296,6.439561920160153e-08,0.10746388211875563,-0.10850434039721318,0.026638158637366866,-0.15103739638181488,-0.06787413040032392,-2.501481900452487,148.0719542640281,-660.16,705.44,34.44745454545455,0.015351320872934577,34.43,34.49,3.476442459790568e-05,5.227844698609141e-08,3.475943150281083e-05,3.531116851079195e-05,-0.0011137244663722936,0.0003294275856059138,-0.0013340009391912674,4.277379892296377e-05,2.9829568190390508e-05,4.4857451756968726e-08,2.9825283871799426e-05,3.02987010761137e-05,0.043353578247221455,6.519474342720108e-05,0.04334735152144089,0.04403540472019392,0.0011153582372295915,0.0003270739196990895,6.221442964723492e-05,0.0013347869760376057,0.13122171945701358,-0.00025895453418389887,True,False,False
0,1.4637922436049475,0.06811403746194565,1.397924879627622,1.63357143564569,0.04052285759610281,0.06784736640568492,0.0003106231421146626,0.2289808375734207,0.03991502479083558,0.10463398274280464,4.9966585168037536e-08,0.6621882466666169,-0.1851430407577912,0.019725527417016008,-0.21064268485023296,-0.1490535749110446,7.223267382702091,125.87999429741873,-358.29,746.45,34.430720720720714,0.011418622087842787,34.41,34.45,3.4775034924982236e-05,1.1489771253088325e-07,3.420769449482971e-05,3.531116851079195e-05,-8.941522276445843e-05,0.00034398348189336177,-0.0013340009391912674,0.0007308269976759938,2.983867236739655e-05,9.85878290954468e-08,2.935186666748515e-05,3.02987010761137e-05,0.04336681003950516,0.00014328518386967645,0.04265929832268786,0.04403540472019392,0.00022984040701855716,0.00027485338554638516,6.122689901791373e-05,0.0013347869760376057,0.13114754098360654,1.579501579501826e-05,True,False,False
0,1.4734490671491405,0.038645815518880335,1.423242573534441,1.5749775924781013,0.016717136812098358,0.025578814929391826,0.0006222381710866038,0.12099088321410578,0.004140461122975757,0.014498103518684042,5.3388721665825756e-08,0.08812354946787587,-0.15105228114773517,0.0264176383934276,-0.1831025305183685,-0.11301267500002823,-6.313167420814477,151.66420043032204,-503.45,758.33,34.45345454545455,0.012373125926956201,34.43,34.47,3.477066596677424e-05,6.190597579851157e-07,2.5931639375112838e-05,4.303548662252769e-05,7.714439957591624e-05,0.0017618179753811807,-0.0013340009391912674,0.01241636958613859,2.9834923588629356e-05,5.311834002239209e-07,2.2250608602771e-05,3.6926541936513574e-05,0.043361361654447164,0.0007720092010132257,0.03233850034139241,0.05366814950273634,0.000924163941777042,0.0015023370137729052,6.221442964723492e-05,0.012416416602188058,0.04524886877828055,0.00017717467258751972,True,False,False
0,1.4246344179739443,0.03212191063861188,1.3732378421774998,1.4775813686491686,0.01062615081944865,0.013660287594588788,0.00016120613791304494,0.04315249332565646,0.007923885394920992,0.034236578946536436,8.381207330238061e-08,0.22326618844305024,-0.1975001796153531,0.023880293102346368,-0.2433134710864313,-0.17240590834315261,0.2257861990950242,106.86225577536027,-595.07,590.47,34.45504504504505,0.015832869944509546,34.43,34.49,3.474507635441313e-05,1.8604673176373994e-07,3.255248347088633e-05,3.64146425267542e-05,0.004923841081329516,0.0002816029730529285,0.004170424650832972,0.00760935396338178,2.9812966455850074e-05,1.59637150217067e-07,2.7931615054542318e-05,3.124553548474225e-05,0.04332944968482175,0.0002320128014903208,0.04059513872642877,0.045411511117699976,0.004924054527591373,0.0002815924796069526,0.0041706761482895975,0.007609483190621539,0.11312217194570137,-0.00022288522288521593,True,False,False
0,1.3498209384211883,0.01985823879174953,1.313088787983508,1.3806828410635235,0.005441085809083902,0.005910005767425,0.00018392443142910617,0.02012221793025973,0.004162670557326305,0.021125662283467565,8.53662693745677e-08,0.1711598446377378,-0.27218929078431986,0.01867855430862723,-0.30568258069924265,-0.2439396045712183,0.5132786885245889,124.2036275195611,-454.89,530.32,34.470363636363636,0.021670055978356216,34.43,34.5,3.475506748127877e-05,6.139126465614574e-08,3.420769449482971e-05,3.531116851079195e-05,0.004868579559415982,0.00012419476196966588,0.004170424650832972,0.006233915906483891,2.9821539328940446e-05,5.267669281271907e-08,2.935186666748515e-05,3.02987010761137e-05,0.043341909292750176,7.655904065003401e-05,0.04265929832268786,0.04403540472019392,0.004868795075191512,0.0001241894722993297,0.0041706761482895975,0.0062340788595872275,0.14019219898247595,0.0005157451029010627,True,False,False
0,1.307385160210901,0.02211292601919937,1.27349563601837,1.3623562167400327,0.00740142616422798,0.0132441710342682,7.708702449817884e-05,0.05141531132658705,0.005675904543217867,0.029305934113247802,8.003342421257498e-08,0.23686479458400403,-0.3195630709041953,0.01453194985639745,-0.34889158910851487,-0.3060688641434181,-0.4582070135746615,77.13703073560248,-246.99,230.99,34.59171171171172,0.044289827969736344,34.49,34.66,3.475943150281083e-05,0.0,3.475943150281083e-05,3.475943150281083e-05,0.004738613378310022,0.00026111830888645706,0.004170424650832972,0.004858477849586002,2.9825283871799426e-05,0.0,2.9825283871799426e-05,2.9825283871799426e-05,0.043347351521440876,1.388564390117382e-17,0.04334735152144089,0.04334735152144089,0.004738835465084682,0.0002611047928359507,0.0041706761482895975,0.004858693731915427,0.14027149321266968,0.001314408564408559,True,False,False
0,1.246942972977191,0.016411879496430182,1.2202038212039565,1.278544310323215,0.0008654850206907425,0.0012242811193296011,1.7700058144938601e-06,0.004841663501020466,0.0006574021422032239,0.004077915738032604,7.017840011544485e-08,0.03606467866307764,-0.37778235870038784,0.01650110626520661,-0.40404166507787376,-0.3493661866393531,0.2521198417184849,69.57242148677263,-195.16,192.57,34.76272727272727,0.05505475324510314,34.66,34.84,3.475943150281083e-05,0.0,3.475943150281083e-05,3.475943150281083e-05,0.004445178925900641,0.00033717094811713013,0.004170424650832972,0.004858477849586002,2.9825283871799426e-05,0.0,2.9825283871799426e-05,2.9825283871799426e-05,0.043347351521440876,1.388564390117382e-17,0.04334735152144089,0.04334735152144089,0.00444541620147955,0.00033715349541692133,0.0041706761482895975,0.004858693731915427,0.13566986998304126,0.0016793273674008014,True,False,False
0,1.2188679964426923,0.022709572561765916,1.191026385050482,1.2735999305406938,0.014302709465145216,0.022899082953314883,3.004943467212307e-07,0.07275765969737281,0.011337827199445477,0.05316356268867545,6.24933962356522e-08,0.3815720518988959,-0.4214421028538964,0.008439380184776562,-0.4330511414724423,-0.4044899040205298,-0.039213800904975664,132.48763422966374,-1319.66,774.75,34.929189189189195,0.050562924525875144,34.84,35.0,3.477004182988739e-05,3.3145490515290144e-07,3.2000746462905206e-05,3.8621590558678696e-05,0.003193619896709993,0.0017269798918640926,-0.0013340009391912674,0.0069206324240205785,2.983438804880547e-05,2.844044395860222e-07,2.745819785022804e-05,3.313920430199936e-05,0.043360583313724596,0.0004133465843941328,0.03990708552767574,0.0481637239127121,0.003201724431714262,0.0017125043562827512,6.517702153519847e-05,0.006920769890964161,0.13574660633484165,0.0015095647595647676,True,False,False
0,1.189518021899226,0.013512617936944105,1.1695504178318534,1.2178509243883382,0.001978333489286261,0.002016386134285218,5.5145646260633275e-06,0.007342696784735861,0.0012303832720020026,0.0061439165559636225,8.576621413070029e-08,0.04077482094568693,-0.4403313633677282,0.014049306956710875,-0.4590512450976856,-0.41434319243946693,-0.2879524886877833,57.31895690920266,-230.77,196.45,34.99909090909092,0.015828522307278808,34.97,35.03,3.476816941922682e-05,6.892063580926974e-08,3.475943150281083e-05,3.531116851079195e-05,0.00048421357331505883,0.00032994028412870074,4.210545831479246e-05,0.0007308269976759938,2.9832781429333816e-05,5.9137259695117656e-08,2.9825283871799426e-05,3.02987010761137e-05,0.043358248291556885,8.594867344893266e-05,0.04334735152144089,0.04403540472019392,0.0004923258986171501,0.00032098414158670944,6.221442964723492e-05,0.0007323066232396128,0.08597285067873305,-0.00033289002096340253,True,False,False
0,1.1565576589286293,0.007967572672264606,1.1441005606721006,1.173442514049918,0.0034244369477374886,0.006689073666726073,9.744746620379938e-07,0.025185393279718964,0.0026530104744733156,0.015635254282765104,7.47102490009831e-08,0.13604325524948346,-0.4772513208856704,0.00781499773961658,-0.4864136270113343,-0.45937925252273215,-0.5994234030525739,93.13804482479217,-557.59,400.87,34.94873873873874,0.016901700673822375,34.93,34.99,3.477065327246468e-05,7.792559891759052e-08,3.475943150281083e-05,3.531116851079195e-05,8.688218297353801e-06,0.00015158906690153573,-0.0006459477404382375,0.0007301586570678224,2.9834912696293955e-05,6.686395628792672e-08,2.9825283871799426e-05,3.02987010761137e-05,0.0433613458237884,9.717846877117271e-05,0.04334735152144089,0.04403540472019392,9.208965344595043e-05,0.00012909772882421515,6.221442964723492e-05,0.000731593760312045,0.10853589598643301,-0.00027448227448227886,True,False,False
0,1.1317213309237273,0.007298997888242761,1.1194835409697537,1.1449842711804301,0.0029800324971764975,0.004558313464201586,1.901196490387784e-05,0.014511062694794099,0.0027449291784931414,0.014584540175596555,7.644347265215942e-08,0.11158788783812681,-0.5033062227114498,0.009950782497300015,-0.5173397710445752,-0.4866374658106156,0.9459219457013578,60.58030843484278,-262.68,199.01,34.89927272727273,0.021871563831155957,34.84,34.95,3.477316251432167e-05,8.599844617170066e-08,3.475943150281083e-05,3.531116851079195e-05,-0.0003851869654657886,0.00033397917831925886,-0.0006459477404382375,4.277379892296377e-05,2.98370657479249e-05,7.379085211440311e-08,2.9825283871799426e-05,3.02987010761137e-05,0.04336447501733745,0.0001072458528615746,0.04334735152144089,0.04403540472019392,0.0004257393376871635,0.00028411560620577155,6.221442964723492e-05,0.0006475694935786403,0.14027149321266968,-0.0005473930978517976,True,False,False
0,1.1043338870119894,0.009472519233434826,1.0887963729743182,1.1236218464819665,0.0021065002818918123,0.004926662424577655,1.625004302612355e-06,0.025067263777923805,0.0030503488202883425,0.013480961039453196,8.378757313708346e-08,0.10034151327685303,-0.5315851860427975,0.009254202466676438,-0.5426312806655585,-0.5174298986041688,0.23083097795364588,65.70329498234919,-490.8,386.63,34.85630630630631,0.01906581557409119,34.83,34.89,3.477378665120852e-05,9.171930823349328e-08,3.420769449482971e-05,3.531116851079195e-05,-0.0006412603071503346,0.00012243411620732318,-0.0013340009391912674,4.277379892296377e-05,2.9837601287748778e-05,7.869963018146024e-08,2.935186666748515e-05,3.02987010761137e-05,0.043365253358060026,0.00011438015305224794,0.04265929832268786,0.04403540472019392,0.0006448480186283124,0.00011168076205790182,6.122689901791373e-05,0.0013347869760376057,0.13566986998304126,0.00011477711477711426,True,False,False
