,EDA_mean,EDA_std,EDA_min,EDA_max,EDA_phasic_mean,EDA_phasic_std,EDA_phasic_min,EDA_phasic_max,EDA_smna_mean,EDA_smna_std,EDA_smna_min,EDA_smna_max,EDA_tonic_mean,EDA_tonic_std,EDA_tonic_min,EDA_tonic_max,BVP_mean,BVP_std,BVP_min,BVP_max,TEMP_mean,TEMP_std,TEMP_min,TEMP_max,ACC_x_mean,ACC_x_std,ACC_x_min,ACC_x_max,ACC_y_mean,ACC_y_std,ACC_y_min,ACC_y_max,ACC_z_mean,ACC_z_std,ACC_z_min,ACC_z_max,Resp_mean,Resp_std,Resp_min,Resp_max,net_acc_mean,net_acc_std,net_acc_min,net_acc_max,BVP_peak_freq,TEMP_slope,0,1,2
0,2.690754290839447,0.1837795164698666,2.445387494696049,3.018659419839053,0.04016303841806158,0.03433393234407052,0.008649562560038107,0.14993445163578012,0.021323415297921436,0.058978186232879155,2.8819497233101288e-08,0.3782499401035322,-0.2969388277245132,0.05064075786661916,-0.3607493336215334,-0.22771563274613102,-0.17384615384615346,37.91443083823489,-145.76,137.48,31.384954954954956,0.04827711435742392,31.31,31.47,1.3108747034646552e-05,1.7237271938408824e-05,-1.6000373231452603e-05,4.524243465445219e-05,0.025319736028568355,0.006706632288127599,-0.0034028389197075562,0.04884509370538341,1.1247942921055146e-05,1.4790418212014548e-05,-1.372909892511402e-05,3.882021075377068e-05,0.01634749019616503,0.021496038734823794,-0.01995354276383787,0.05642036229774846,0.025335096530282878,0.006648365693704755,5.33266539833442e-05,0.048845094246417864,0.14027149321266968,0.0014433134433134483,False,True,False
0,2.418352767622574,0.07496769125747388,2.328615441510333,2.653983186248766,0.023229101184203446,0.025925850194429022,0.0003875675256090643,0.10674540667165164,0.018958319007713675,0.07284352238292376,3.338670051533654e-08,0.580309962150147,-0.38564785785940714,0.00903343367048472,-0.3990492555814943,-0.3613097096899256,0.18291124929338673,54.869529078784026,-224.11,265.23,31.504545454545454,0.03415121160923434,31.45,31.57,1.4218462419477367e-05,1.3471797218141447e-05,-8.276055119716864e-06,4.800111969435781e-05,0.028021144236798662,0.009253169947428757,-0.015099743298509067,0.05917859015823412,1.220013272792255e-05,1.155945764711068e-05,-7.101258064714148e-06,4.1187296775342064e-05,0.017731380000896805,0.016800238220038902,-0.010320797981295449,0.05986062829151361,0.028331237441247555,0.008253940881109055,6.122689901791373e-05,0.05917859051994891,0.12210288298473713,0.0010228343439352846,False,True,False
0,2.234708320088239,0.09354530450111705,2.0877660620838503,2.4169229794876186,0.007306310403808222,0.008356388372002426,0.00015609525572408698,0.031240601956266417,0.004270201528431476,0.026548477045912587,4.480970992350175e-08,0.24500934444381048,-0.4408331414671712,0.030768907310785194,-0.48867038710146105,-0.3997325732964076,-0.3593834841628959,32.959739174748606,-100.98,230.23,31.605315315315316,0.022716426568367087,31.57,31.65,3.208562907951769e-05,2.147977613227676e-06,2.5379902367131716e-05,4.248374961454656e-05,0.010119935615649452,0.012744547495580036,-0.014418373505837748,0.025492722065487017,2.753103126627639e-05,1.8430693280931562e-06,2.177719139845672e-05,3.64531247321993e-05,0.04001293986594543,0.0026786727122748368,0.03165044714263938,0.05298009630398331,0.01529847922146814,0.005535869123840347,6.715208279384086e-05,0.025492750096326844,0.14027149321266968,0.0005917865917865788,False,True,False
0,1.9565649998699228,0.10053074748632321,1.78208738429017,2.1152574602863905,0.003133920606655531,0.002927531525539104,5.7258300208472725e-05,0.01029485722520988,0.0025344136498090058,0.010353057175307705,4.1009396045676993e-08,0.0862885928333948,-0.5444889672826247,0.03894171989673471,-0.6190706678178461,-0.4889403514051889,0.2876879592990392,19.36996533686739,-75.9,60.66,31.68927272727273,0.028916491307867522,31.65,31.75,3.10955237108277e-05,3.735603033692945e-06,2.482816535915059e-05,3.8069853550697574e-05,0.016205751202398172,0.009094660134143553,0.002109606757614739,0.030994474293078573,2.6681472674336145e-05,3.2053292040532247e-06,2.1303774194142445e-05,3.2665787097685084e-05,0.03877821180497586,0.004658548510292947,0.03096239394388635,0.04747567071395907,0.016205829063603603,0.009094614970227717,0.0021101859229750437,0.03099449393771226,0.1492368569813454,0.0007866014471519147,False,True,False
0,1.76613696750233,0.06468620051124443,1.6580809405534596,1.895668737300034,0.021358202710884504,0.022561663958283986,0.0019297783135568103,0.0805895979026184,0.016144534459695502,0.04992240489833706,2.7510038302924755e-08,0.3465580752158986,-0.6363390284428758,0.014105897774000556,-0.6577487657889063,-0.6151541097348623,-0.14149321266968282,52.00584132039348,-335.97,205.38,31.81936936936937,0.04852889072555937,31.73,31.91,2.3603608787138184e-05,1.527921617794804e-05,-1.6000373231452603e-05,3.64146425267542e-05,0.019836585022834485,0.006992439085984277,0.006233915906483891,0.046138328071726936,2.0253045059680214e-05,1.3110311076550254e-05,-1.372909892511402e-05,3.124553548474225e-05,0.029435289446201465,0.01905421136085158,-0.01995354276383787,0.045411511117699976,0.019836628950898563,0.006992412557651304,0.0062340788595872275,0.04613834733987238,0.08597285067873305,0.0014671814671814824,False,True,False
0,1.52563737969501,0.07220826390850404,1.41499163293867,1.665067567912875,0.0029961998980034574,0.0022965903127306147,1.447105441021586e-05,0.0066456548929935836,0.0020911799091566877,0.0068612661166797895,4.9917275743438516e-08,0.05653518551846151,-0.7115256390664318,0.027128455414843832,-0.7534517705851287,-0.6590946916607094,-0.08710407239818979,17.204170618930107,-49.26,52.21,31.966727272727272,0.04018555792680025,31.89,32.05,2.898304461495415e-05,1.0490474507010436e-06,2.7035113391075092e-05,3.2000746462905206e-05,0.023782283740697508,0.0021479064095346456,0.017239425383491516,0.02618144360484822,2.4868862801744418e-05,9.001337668487481e-07,2.3197443011399553e-05,2.745819785022804e-05,0.036143808134043505,0.0013082328059517434,0.03371460673889847,0.03990708552767574,0.02378231495748448,0.0021479007165840186,0.017239475188402745,0.026181471958159584,0.13574660633484165,0.00116385276018303,False,True,False
0,1.3417854750176643,0.047357341209979587,1.2499278038544703,1.4137411745398842,0.0008120295012801289,0.0013763141221648887,1.0423647021658686e-06,0.005250780021497566,0.0005532414570772782,0.00541412543213252,4.6183618528441994e-08,0.056938578288537635,-0.7802333030666523,0.017577675867383496,-0.8141599124108955,-0.7540067479852459,-0.08768230638779016,29.253273184781357,-94.15,166.46,32.0709009009009,0.026130774248334425,32.0,32.11,3.206378428847771e-05,2.7439280264937752e-06,2.372469134318834e-05,3.64146425267542e-05,0.014413236579903328,0.006901726538758464,0.007608685622773609,0.028931651378035824,2.751228737244042e-05,2.354423785882268e-06,2.035693978551389e-05,3.124553548474225e-05,0.03998569794065544,0.003421863004414816,0.029586287546380288,0.045411511117699976,0.014413313160868111,0.006901696838962277,0.007608810658800294,0.02893167421363894,0.14019219898247595,0.0006161811161811533,False,True,False
0,1.1424870731431354,0.06066910139978,1.046905534179077,1.2502926610567178,0.00036251787538209903,0.0007332718246766345,4.525343186686932e-07,0.0028164495829976926,0.00027964757449473537,0.0029005336792217247,3.5488596929627604e-08,0.030423303831171016,-0.8571635493971207,0.023352340105406082,-0.8940223411645473,-0.8148833960140298,-0.23475678733031757,26.694174738438367,-118.9,70.27,32.14836363636364,0.03798906826649476,32.07,32.23,3.089040694118754e-05,1.8864784481079533e-06,2.6483376383093966e-05,3.586290551877307e-05,0.019065514402302655,0.005013070590404219,0.00760935396338178,0.028244934860499137,2.6505472503536753e-05,1.6186903180019356e-06,2.2724025807085277e-05,3.0772118280427976e-05,0.0385224173822214,0.002352565645992947,0.03302655354014544,0.04472345791894695,0.019065564189905876,0.005013047072581093,0.007609483190621539,0.028244960159990368,0.14027149321266968,0.0011017289182426605,False,True,False
0,0.9957141950524215,0.02574885092940088,0.9478671226520512,1.0456795585649863,0.0011336492729847963,0.0015797236521524257,8.635602068029768e-06,0.006363860530849169,0.0008716505390176342,0.006715034633912712,5.179084260412137e-08,0.06912581915184655,-0.9149853889749878,0.00928186236086107,-0.9321997038976588,-0.894697308416132,0.24394573205200668,19.40267551433823,-52.63,39.82,32.252342342342345,0.024825022382301755,32.21,32.29,3.016723398779505e-05,2.6346593409297286e-07,2.9242061422999583e-05,3.089727244694296e-05,0.02156055722165699,0.00033474849976428985,0.02067768635543215,0.02343056749105244,2.588495491476105e-05,2.2606659358730603e-07,2.5091111828656657e-05,2.651136344159949e-05,0.0376205720163394,0.0003285597596188922,0.03646681953391059,0.03853097913016968,0.02156059387959771,0.00033474772320008135,0.02067772362300054,0.023430601609410906,0.13114754098360654,0.0006981396981397268,False,True,False
0,0.9071036904146357,0.02196291129873137,0.8688734662911104,0.9479815282362348,2.075071269504559e-05,4.029893667028413e-05,2.5562937290576517e-07,0.0001561615202141581,1.5530958035864086e-05,0.00015918680154170282,8.739825530746653e-08,0.0016775067977432315,-0.9479524937931569,0.008475370960733952,-0.9628965988048096,-0.9325601617853226,0.07117647058823513,19.52519718613094,-63.33,47.93,32.36801801801802,0.045842017642011706,32.29,32.45,2.9212726989317335e-05,1.746731589767611e-07,2.869032441501846e-05,2.9793798430980708e-05,0.023464220608405445,0.00028976243630458653,0.02205312441233004,0.024804668866733985,2.5065941456934067e-05,1.4987807124649229e-07,2.461769462434238e-05,2.5564529032970932e-05,0.03643023751994973,0.00021782919041451874,0.03577876633515756,0.037154872732663616,0.02346425218967866,0.0002897618780306292,0.02205315807334079,0.02480469767511642,0.14027149321266968,0.0013667953667953398,False,True,False
0,0.8312689556650618,0.020834427333258757,0.7975396665294338,0.8685863121335011,2.431724299649286e-07,6.311338598461864e-08,1.52825580482418e-07,3.776769489719957e-07,1.8629033119117178e-07,6.074960608359017e-08,1.0607391688326093e-07,3.6110644365305096e-07,-0.9775111274107756,0.007994381423433294,-0.9908740670111041,-0.9631906250337116,-0.037744488411531996,16.488739241564403,-47.74,50.94,32.519999999999996,0.04702136933684383,32.43,32.61,2.8240321719594945e-05,4.405392223967601e-07,2.6483376383093966e-05,3.089727244694296e-05,0.025112346687014203,0.0006564047916893579,0.023426557447403417,0.026183448626672733,2.4231570411321352e-05,3.7800409260383437e-07,2.2724025807085277e-05,2.651136344159949e-05,0.03521758267418365,0.0005493820729107833,0.03302655354014544,0.03853097913016968,0.025112374299738803,0.0006564034037532608,0.023426584532432612,0.026183480278210658,0.13566986998304126,0.001381060793904812,False,True,False
0,0.7597084670862875,0.02206952231984021,0.717941572297827,0.7970781533857831,2.2980889277698094e-07,5.955155420359413e-08,1.4423905481398859e-07,3.446094452105884e-07,1.6632230351130862e-07,6.077847246639293e-08,8.245804669750296e-08,3.1360376072616466e-07,-1.0051746912468482,0.00855990898378508,-1.0195243385636505,-0.9911162710623171,-0.09081447963800912,17.826532971227977,-46.83,45.88,32.69900900900901,0.05798048190327789,32.61,32.81,2.6575124505461864e-05,1.231141695854547e-06,2.3172954335207218e-05,3.255248347088633e-05,0.027579226340523268,0.0017087467354118219,0.025491385384270676,0.030306421094325544,2.280275016119636e-05,1.056379491197983e-06,1.9883522581199616e-05,2.7931615054542318e-05,0.03314096962636342,0.0015353165905085185,0.02889823434762726,0.04059513872642877,0.027579248828605116,0.001708743344008383,0.02549141130171782,0.030306441184955284,0.13122171945701358,0.0017334152334152384,False,True,False
0,0.6902249359440508,0.01620836883130513,0.663656190946242,0.7208989679014138,0.0003386220579835672,0.00044017700657814724,1.356449246403995e-07,0.0016348964261603473,0.0004722078424383684,0.0027856272364074315,5.5752322267307516e-08,0.022033739229170013,-1.032353855281545,0.006343172704850874,-1.0390420923734038,-1.0197470971004967,0.21283371040723986,20.884137972328695,-74.17,63.23,32.86818181818182,0.0496996819102986,32.79,32.97,2.56382950382903e-05,3.676693707202598e-07,2.2621217327226096e-05,2.7035113391075092e-05,0.02905693889524938,0.00033351999793569177,0.026175428539374677,0.030994474293078573,2.199890488554508e-05,3.154782134975626e-07,1.941010537688534e-05,2.3197443011399553e-05,0.03197268020178389,0.0004585084613650629,0.02821018114887423,0.03371460673889847,0.029056958541551076,0.0003335196756545611,0.02617544808534624,0.03099449393771226,0.12669683257918554,0.0015003493902576086,False,True,False
0,0.6464362454273502,0.01853570869496776,0.6155166477166952,0.6806460629004352,0.0004053237187360159,0.0007418046924667445,1.0508746616425665e-06,0.0029127508162153496,0.0001024697777819413,0.0008330410069621252,1.0905924769169517e-07,0.008258801547869399,-1.049563433905913,0.006525110644518875,-1.0605895876848421,-1.0391461580732944,-0.0004013566986996903,24.438094025542686,-115.16,59.61,33.01990990990991,0.044014367395937365,32.93,33.11,2.7553185090094654e-05,1.3548721354100122e-06,2.3172954335207218e-05,3.586290551877307e-05,0.026069775767863228,0.0022351687024264526,0.00967351355964087,0.03030575275371737,2.3641973742230246e-05,1.1625462299441514e-06,1.9883522581199616e-05,3.0772118280427976e-05,0.034360677030608945,0.001689616779706936,0.02889823434762726,0.04472345791894695,0.02606980166905855,0.002235162169161037,0.009673615212363654,0.03030577201638249,0.14019219898247595,0.001301509301509306,False,True,False
0,0.5854238254139112,0.01664523338804161,0.5593532799795088,0.6167691535949713,8.598569867085566e-07,1.5885494545363745e-06,1.636266284090219e-07,8.683673729406931e-06,1.5432710397375888e-07,3.500915434961636e-08,1.0854120480727054e-07,2.3204923188997247e-07,-1.072699523701012,0.00647742727390426,-1.0824857929323193,-1.060802580198676,-0.33777714932126685,18.883976777339733,-45.48,34.36,33.17963636363636,0.041462424079022675,33.11,33.25,2.8245314814689798e-05,3.483172145177442e-07,2.5379902367131716e-05,2.9793798430980708e-05,0.02535208167789746,0.0004186851845271671,0.024115947327372787,0.02755353995870525,2.4235854729912428e-05,2.988731216615581e-07,2.177719139845672e-05,2.5564529032970932e-05,0.03522380939996422,0.00043437501955257384,0.03165044714263938,0.037154872732663616,0.025352109014546546,0.0004186843502677705,0.02411597582978661,0.027553561145439453,0.13574660633484165,0.0012521245181795493,False,True,False
0,0.5390698618680271,0.012037408009634785,0.5194871779546316,0.5585999636222772,2.4830672670060124e-07,9.549385577347061e-08,1.340400818615866e-07,4.339151897100047e-07,2.054115125435876e-07,1.0205268673091507e-07,8.58783693788271e-08,4.813468442060755e-07,-1.0906912777411413,0.004709174623106346,-1.0989805542279305,-1.0826297303479986,0.23570944036178643,19.51856846139192,-48.99,43.6,33.29594594594595,0.03344951089133803,33.25,33.37,2.770231572312466e-05,2.451209573461931e-07,2.7035113391075092e-05,2.869032441501846e-05,0.026129764644440355,0.0002507988934568559,0.022738504248650385,0.028243598179282795,2.3769935083132543e-05,2.103257107408742e-07,2.3197443011399553e-05,2.461769462434238e-05,0.034546652971327196,0.00030568233840355815,0.03371460673889847,0.03577876633515756,0.02612979014596059,0.00025079856257789507,0.022738532153254967,0.028243621571192402,0.13566986998304126,0.0009602492102491945,False,True,False
0,0.5443773743376386,0.02767343651583315,0.5103542122500802,0.594418608747329,0.004513040884849579,0.006471103834569836,2.4065738949430306e-07,0.021846559934467706,0.003481066247684669,0.02343634308806236,4.2396510155015554e-08,0.2376485422039903,-1.0931931797564076,0.00700456639725164,-1.100791718803228,-1.0824537285694378,0.38288461538461566,33.41640432196403,-95.95,111.66,33.424,0.05199153071467508,33.33,33.5,3.0097753094879816e-05,3.344751525113835e-06,2.372469134318834e-05,3.8069853550697574e-05,0.019817988049158484,0.007424708785662316,-0.004083540371770703,0.0303050844131092,2.5825336927202898e-05,2.8699595880642415e-06,2.035693978551389e-05,3.2665787097685084e-05,0.037533924664555844,0.004171130362107925,0.029586287546380288,0.04747567071395907,0.0198548078220789,0.007325673822172083,0.0006475694935786403,0.030305102865213696,0.14027149321266968,0.0015677929806370092,False,True,False
0,0.537165094065903,0.009541216030418728,0.5192104128192979,0.5557988593173662,0.00036260038678728274,0.0007056725710460152,9.985639401715158e-07,0.002739374090618796,0.0002695495139414141,0.002678808755303106,6.524252087886095e-08,0.028187361136956787,-1.0916273209252179,0.0034622718617546974,-1.0964468556281237,-1.0833446907878586,-1.0236800452232901,45.96931508495065,-203.46,177.93,33.56207207207208,0.03176954279343456,33.5,33.61,1.641370841370287e-05,1.474546181881168e-05,-1.82073212633771e-05,4.248374961454656e-05,0.026071053847851373,0.004160511959706637,0.008280030306322357,0.03375537551599692,1.4083760627329124e-05,1.2652323860109009e-05,-1.5622767742371126e-05,3.64531247321993e-05,0.020468999566971496,0.01838858373602364,-0.022705755558849988,0.05298009630398331,0.026071070121557217,0.004160511514538121,0.00828006940382425,0.03375540464746767,0.13114754098360654,0.0008674973674973793,False,True,False
0,0.5366553612509343,0.014620807691949659,0.5150674892644521,0.5966022930002107,0.002577622768505169,0.005081691648206871,9.521598248614561e-07,0.01958958946230057,0.001985179936159697,0.016538887674762807,9.025184815247486e-08,0.16678398732268757,-1.0943229727735422,0.0017788646596089389,-1.096400080048838,-1.0914109757254047,0.9561142533936644,48.978620946218875,-235.2,200.7,33.64754545454546,0.02560054341583279,33.59,33.71,3.3620381684297754e-05,1.975431714639014e-06,1.7103847247414853e-05,3.8621590558678696e-05,0.008260003713090904,0.005998587690825121,-0.004776940295389103,0.03649021145519658,2.8847923693209428e-05,1.6950165497873485e-06,1.4675933333742575e-05,3.313920430199936e-05,0.04192687970274826,0.002463496358797916,0.02132964916134393,0.0481637239127121,0.008445950817358883,0.005733679788100641,5.5301715241986593e-05,0.03649022032686963,0.13574660633484165,0.0007083831120528009,False,True,False
0,0.5158910343486673,0.009259664101711277,0.49229287191958554,0.5291345360869997,3.355951794221125e-06,7.682414691090945e-06,1.4134820463319908e-07,4.1110219654984934e-05,1.5771918712434258e-07,4.721660079951987e-08,6.962151467493962e-08,2.5734389382904783e-07,-1.0995867839532243,0.00345094067596011,-1.1076932423262982,-1.095254993812111,-0.4750452488687784,31.427169145438008,-111.9,105.28,33.68018018018018,0.014646251892983773,33.66,33.71,3.385131233243465e-05,2.15063211319383e-06,2.04142692953016e-05,3.64146425267542e-05,0.003924147282968613,0.00820608456634054,-0.0020220541379442976,0.030987122546388687,2.904607342804686e-05,1.8453470182510587e-06,1.7516436559628233e-05,3.124553548474225e-05,0.04221486577009965,0.002681983052466598,0.02545796835386211,0.045411511117699976,0.004151187409664605,0.008093597618405026,5.9251837759271344e-05,0.03098713422168708,0.13574660633484165,0.00015303615303616624,False,True,False
0,0.4819857309400676,0.013364631441013778,0.44929149912465033,0.5094010030723772,0.004612865197111084,0.005265877968786105,1.4494075854569274e-07,0.018002864010195924,0.003675865515390264,0.014029324045295211,3.716898681893621e-08,0.09682314408162027,-1.1176303612314573,0.006356986863270077,-1.1292249359190145,-1.1079539096209647,-0.10711136235161119,41.27410937657875,-213.51,129.77,33.745272727272734,0.026945718146651126,33.68,33.79,1.281353028716344e-05,1.6937053833836125e-05,-1.7655584255395975e-05,3.365595748684858e-05,0.020917083294117227,0.007141366380793858,0.0055278175113102354,0.03443474028684373,1.0994632584357575e-05,1.4532816467532329e-05,-1.514935053805685e-05,2.8878449463170872e-05,0.015979335034388805,0.021121646544003267,-0.02201770236009696,0.04197124512393483,0.020917105919671854,0.007141354888881562,0.0055278760746671814,0.03443475796884526,0.054267947993216506,0.0006939115929942057,False,True,False
0,0.45487756737519514,0.019636424284477177,0.4298214239691675,0.5191588259918617,0.0037307039603503523,0.006329660850796657,1.6879193608221335e-06,0.024282092669587967,0.002743524624642886,0.025041147535675597,4.102508274067551e-08,0.2627016154710814,-1.126779949377557,0.003093292356690231,-1.1336020086263594,-1.1225163428336224,0.15998868778280537,34.681033151296084,-166.05,97.99,33.84963963963964,0.03842177242440189,33.77,33.91,2.431200415372029e-05,1.2567383311457656e-05,-1.4896899215490354e-05,4.579417166243331e-05,0.023396016913433043,0.005597969019539236,-0.0013346692797994387,0.03789839820189487,2.0860882759789614e-05,1.0783426499930787e-05,-1.2782264516485466e-05,3.929362795808496e-05,0.030318706166319882,0.015672373182006514,-0.018577436366331808,0.05710841549650149,0.02340212011959131,0.005572487472865315,6.418949090587729e-05,0.037898446239453466,0.14027149321266968,0.001066339066339042,False,True,False
0,0.4156288107997576,0.006809806766097183,0.40620981488947716,0.4293716551408084,0.00014466905435532945,0.0003256455361114279,1.530256961233423e-07,0.0012338103965181847,0.00012242410934614617,0.0012788858882661484,1.0325372818472539e-07,0.013413531870759483,-1.1387960565929967,0.00259917588061006,-1.1420874571379704,-1.1337982692315867,0.22044092707744464,25.299029420601848,-121.7,116.5,33.90381818181818,0.01427012136025259,33.89,33.93,2.788672102147307e-05,1.593690298309153e-06,2.3172954335207218e-05,4.138027559858432e-05,0.02545598541216886,0.0034582554133440195,0.0014208852182535376,0.028932319718643996,2.392816380359537e-05,1.3674638363104273e-06,1.9883522581199616e-05,3.550629032357074e-05,0.03477661879482687,0.0019874391090524746,0.02889823434762726,0.05160398990647725,0.025456016056190734,0.0034582256655698814,0.0014217198769894863,0.028932343476256284,0.14471452798191067,0.0001745598809818861,False,True,False
0,0.3927824939843017,0.00811473038797391,0.38034909436697,0.4079761568170837,1.4691203128625655e-05,3.543280634061037e-05,1.3567074581987707e-07,0.00018893040013061795,1.5143018556249977e-07,3.9966074770123586e-08,8.313191906701127e-08,2.507276730147332e-07,-1.1472892868674458,0.0031135972976277606,-1.1508950578430917,-1.1421162916289034,-0.018540723981900438,29.49319137023849,-82.05,90.52,33.872882882882884,0.01551464922917456,33.84,33.89,2.926016139271842e-05,9.317165744772855e-07,2.5931639375112838e-05,3.2000746462905206e-05,0.02287273911839857,0.0019146642947995554,0.017239425383491516,0.028932988059252165,2.510664248354932e-05,7.994581648896773e-07,2.2250608602771e-05,2.745819785022804e-05,0.03648939141486516,0.0011619133031261955,0.03233850034139241,0.03990708552767574,0.022872772056307916,0.001914659391407569,0.017239475188402745,0.02893301275709863,0.14027149321266968,-0.0003024745524745527,False,True,False
0,0.3891397122096442,0.006804756032379887,0.3787893429007766,0.414680255991943,0.0010767571359343805,0.0016186153264741172,1.577704719851732e-07,0.006496725312777463,0.0008287251259039386,0.004939729521007184,5.8276773270418084e-08,0.04708602281568798,-1.1500238228744684,0.0014085810922658626,-1.1525467500193165,-1.1482344752822558,-0.48663461538461505,44.18574828990517,-239.64,123.25,33.84509090909091,0.017854943269748402,33.81,33.89,3.427198059417592e-05,1.2800755990576325e-06,1.434516220750923e-05,4.138027559858432e-05,0.0035253680642011957,0.004840657082688599,-0.006839094869823678,0.024115947327372787,2.9407027269345302e-05,1.0983671616197254e-06,1.230884731217119e-05,3.550629032357074e-05,0.0427394674171127,0.001596340462642008,0.01788938316757878,0.05160398990647725,0.004594446463886075,0.003839720853024667,6.122689901791373e-05,0.02411597582978661,0.13574660633484165,-0.0003945630367648367,False,True,False
0,0.3879136174152334,0.01969954007497397,0.3677028372918104,0.4614283036238364,0.0059361217749437185,0.007300294416834899,6.682117410439186e-07,0.028679282903403967,0.005038690363215997,0.02284559310821409,2.992825087755335e-08,0.2183910539966613,-1.1549922780767363,0.005066104134210978,-1.1617785288394626,-1.1433083155383568,0.19665347654041865,68.69252913805606,-391.83,314.15,33.858468468468466,0.02942473289283711,33.81,33.91,3.0549004064077046e-05,8.246107961247762e-06,-1.1034740159622484e-05,5.793238583801805e-05,0.011287920347717875,0.010757786612203215,-0.010980112533897112,0.04680499437101849,2.6212532219871702e-05,7.075561945304874e-06,-9.468344086285531e-06,4.9708806452999045e-05,0.03809666500697489,0.010283451858269144,-0.013761063975060599,0.07224558586906815,0.011722998779272803,0.010281479480734462,6.418949090587729e-05,0.04680499818782683,0.18541548897682306,0.0007871182871182456,False,True,False
0,0.38837579398273026,0.018879836104635814,0.36647081255371433,0.43147823659574686,0.0010440295048881737,0.0014602915060735824,1.1969195947115266e-06,0.005768847924779871,0.0003259646893548636,0.003415740326026802,5.3002380234756785e-08,0.035824873161267895,-1.150273634069052,0.005885254932381502,-1.1573203972520385,-1.1420580178890838,-0.08555429864253368,64.68981300349505,-374.77,354.23,33.94836363636364,0.023946702009134884,33.91,33.99,2.354431578288682e-05,9.688186772075534e-06,-9.931266143660237e-06,4.4690697646471064e-05,0.027728109785050765,0.010221319604986536,-0.02198094362664754,0.04818310579034907,2.020216877641115e-05,8.312935746857619e-06,-8.521509677656977e-06,3.8346793549456406e-05,0.029361347077557182,0.012081821234060515,-0.01238495757755454,0.05573230909899543,0.02842246276064751,0.008089748418675683,6.221442964723492e-05,0.04818311040296248,0.12217194570135748,0.0006151973491423283,False,True,False
0,0.3677984997690559,0.005414962523639766,0.35889514717999854,0.38351130372859676,0.000406940606393097,0.0006671808694934397,1.6933433856800344e-07,0.002657158330926895,0.00039531301993140906,0.00285779456691701,4.979275729753707e-08,0.028633926965645966,-1.1574821327815907,0.0007137570379162263,-1.1599666544737781,-1.1565674150156222,-0.1363199547767103,71.92654518250397,-451.67,352.41,33.99846846846847,0.021582745557850443,33.97,34.05,1.9789590784570424e-05,1.2059766712805374e-05,-1.0483003151641362e-05,4.744938268637668e-05,0.03005652220401805,0.011733194487168539,-0.01165546726109489,0.048162387231495754,1.6980431996099527e-05,1.0347866754035135e-05,-8.994926881971256e-06,4.071387957102778e-05,0.024678952189850206,0.015039341104421495,-0.01307301077630757,0.059172575092760575,0.030210950429398264,0.011329221464691975,6.813961342316204e-05,0.048162387253443906,0.14471452798191067,0.0005063180063180118,False,True,False
0,0.34725622675622175,0.007206586820248034,0.3335053225969059,0.3596188212147024,0.00010725193618786071,0.00025923729337642596,2.1824898005483698e-07,0.0013564033684487192,1.699716351079163e-07,4.9673248769327955e-08,9.068153672409096e-08,3.3368279405278194e-07,-1.1650638939295317,0.0027656527904904773,-1.1705248039308085,-1.1601193846687683,0.2843382352941177,15.58451500670428,-111.96,45.92,34.03936936936937,0.010025356876826907,34.03,34.05,3.238771133275622e-05,8.53528027860865e-07,2.9793798430980708e-05,3.586290551877307e-05,0.01558970179720137,0.0026086859718947608,0.007610022303989951,0.02205446109354638,2.77902325410367e-05,7.323685866792406e-07,2.5564529032970932e-05,3.0772118280427976e-05,0.04038965677566994,0.001064406920869671,0.037154872732663616,0.04472345791894695,0.015589762732471571,0.0026086711190789523,0.007610155791155924,0.02205449734074473,0.13574660633484165,2.2815022815018274e-05,False,True,False
0,0.3226840762125849,0.004925550077877492,0.31448535834362484,0.3345643001842792,2.1028674508819896e-07,3.389900844881819e-08,1.7002361160726297e-07,2.9340080445902216e-07,1.58061844260394e-07,4.362385049545511e-08,1.0493068399795565e-07,2.749860596360644e-07,-1.1745583122521452,0.0018905606499130304,-1.1775350513384495,-1.1706363100577504,0.11082532504239678,11.787696332991247,-38.09,45.11,34.03290909090909,0.01814040320730899,34.0,34.07,3.065073837663465e-05,1.2778520861472426e-06,2.869032441501846e-05,3.475943150281083e-05,0.020127659168710284,0.003320956478694714,0.01104961995714693,0.023429899150444272,2.629982521116494e-05,1.0964592793305794e-06,2.461769462434238e-05,2.9825283871799426e-05,0.038223534544754016,0.001593567592328195,0.03577876633515756,0.04334735152144089,0.020127701971990868,0.003320943051525129,0.011049708950270928,0.02342993204035297,0.12662521198417184,1.1541149155839084e-05,False,True,False
0,0.3095204394908692,0.003017386927234605,0.3038349215039972,0.31417657995961396,2.127323593295026e-07,3.832297884384742e-08,1.5839917911050066e-07,2.7763737727399663e-07,1.7033030952705341e-07,3.9450056756248847e-08,1.0745343610594084e-07,2.536597634599072e-07,-1.1796450516056654,0.001223036248254187,-1.181976047078248,-1.1775836864391545,-0.15931561085972848,13.18811476109581,-38.64,37.14,34.02567567567567,0.01817198751433384,34.0,34.05,2.9331312997820063e-05,2.558451849164287e-07,2.869032441501846e-05,3.089727244694296e-05,0.023376411754623162,0.00045400418931103336,0.02136640789479335,0.0241179523491973,2.51676940234722e-05,2.1952761991370386e-07,2.461769462434238e-05,2.651136344159949e-05,0.036578122257238284,0.00031905617227208236,0.03577876633515756,0.03853097913016968,0.023376443725838164,0.0004540032043618686,0.02136644530924255,0.02411798430080178,0.14027149321266968,-0.00023517023517022627,False,True,False
0,0.2995549144098016,0.006999458377937938,0.28038660529024767,0.30721047895769765,2.449210126289049e-07,1.1235221733278374e-07,1.2838158411771812e-07,4.744036529418935e-07,1.8026503081837108e-07,1.1494560839073315e-07,7.252770308747516e-08,4.6297609263937154e-07,-1.1834288632199088,0.002362183535994328,-1.1901053981922591,-1.1817232290285573,-0.08002262443438903,28.367215196750095,-153.53,100.28,34.008545454545455,0.018013061705143725,33.99,34.05,2.8192887316193852e-05,2.6318920953546052e-06,1.544863622347148e-05,4.579417166243331e-05,0.022971073900073243,0.003610901099677458,0.0027909765502860556,0.029615026192531653,2.4190869384706092e-05,2.2582915044956487e-06,1.3255681720799745e-05,3.929362795808496e-05,0.03515842877926823,0.003282146654631338,0.01926548956508484,0.05710841549650149,0.022971105874353873,0.0036108904368011008,0.00279129505868692,0.029615042692022454,0.14932126696832582,1.983635011157706e-05,False,True,False
0,0.26494505818154634,0.008071590022792641,0.2513773696461638,0.280440825147491,2.696668074506527e-07,1.0613397917870989e-07,1.36829964433422e-07,4.728055002643546e-07,2.1334217569918865e-07,1.1395489236990836e-07,9.001332226399119e-08,5.79990381367432e-07,-1.1969800407867082,0.003059882266967604,-1.2015391427922568,-1.1903317295322955,0.36949689089881305,18.80998142071499,-58.8,32.53,34.013153153153155,0.018039450807099885,33.99,34.05,2.3784540781342227e-05,3.71873732870886e-07,2.2621217327226096e-05,2.5379902367131716e-05,0.028868735898628234,0.0005436663528250707,0.026863481738127706,0.030303747731892858,2.040829351615137e-05,3.1908576083711197e-07,1.941010537688534e-05,2.177719139845672e-05,0.029660923825567058,0.00046375158405686715,0.02821018114887423,0.03165044714263938,0.02886875292871897,0.000543665586770625,0.026863500783469503,0.030303764615092748,0.13566986998304126,-5.76518076518036e-05,False,True,False
0,0.24683836219112298,0.0034718898963191215,0.24117960536963107,0.254220971605744,1.9699501976633473e-07,1.6083098762321054e-08,1.7461689941619473e-07,2.3132228499561754e-07,1.485304680388635e-07,1.9578318729527783e-08,1.1556217440647121e-07,1.9019171368826277e-07,-1.2039147978405005,0.0012959719375417347,-1.205606974479373,-1.2015886612126574,-0.16662895927601798,20.450178061424584,-55.83,31.4,34.00872727272727,0.015211601735390585,33.99,34.03,2.301629597660625e-05,2.8987312403218184e-07,2.1517743311263846e-05,2.372469134318834e-05,0.029846113620855326,0.00037137728171962256,0.028925636312562283,0.030989795908821373,1.97491020854045e-05,2.4872524771776073e-07,1.8463270968256787e-05,2.035693978551389e-05,0.028702870826261866,0.00036149130353369457,0.02683407475136817,0.029586287546380288,0.029846129037258015,0.00037137685443208984,0.028925651670416795,0.030989810243724727,0.14027149321266968,0.00012406735342515611,False,True,False
0,0.2385782055368171,0.0036640322355000437,0.23150492631715372,0.24465791967095288,2.0146155079560623e-07,2.7110795583842765e-08,1.503190203583673e-07,2.45750450027236e-07,1.6719237246638363e-07,8.389810647533746e-08,1.0298796058649118e-07,8.194818003970979e-07,-1.2070745414653332,0.0012549054305919856,-1.2085377290363513,-1.2054922862227413,0.1652741661955904,19.9215980945377,-56.31,36.34,34.002702702702706,0.017106402094800698,33.97,34.03,2.2138759513686038e-05,1.2640945172967906e-06,1.7103847247414853e-05,3.9725064574640946e-05,0.030897367283546518,0.001458873193483869,0.017921463516771003,0.03581552506860698,1.899613309302229e-05,1.0846546157152558e-06,1.4675933333742575e-05,3.408603871062791e-05,0.027608523770326614,0.0015764109776409633,0.02132964916134393,0.04953983031021816,0.03089738117671391,0.001458871554829347,0.017921497491379664,0.03581554738889496,0.14471452798191067,-0.0002573710073710057,False,True,False
0,0.23464515620600832,0.0015478011333779301,0.23113518308943234,0.24012513695155663,2.3576519404011912e-07,7.758578545288923e-08,1.6971069413847848e-07,4.735450742768772e-07,1.6955923185880324e-07,1.0017279740523229e-07,1.1363427830620252e-07,9.385171588139294e-07,-1.2087263043522574,0.00025398530693902777,-1.2091272703211002,-1.2084067463620909,0.20024886877828046,19.655989922569702,-100.68,78.61,33.97727272727273,0.0171827249982453,33.93,34.03,3.0168280563094594e-05,1.3377262395185247e-06,2.482816535915059e-05,3.6966379534735316e-05,0.02090852883416043,0.00325916701180091,0.005540515982865491,0.026866823441168565,2.5885852927301893e-05,1.1478342168274066e-06,2.1303774194142445e-05,3.1718952689056526e-05,0.037621877166206394,0.001668234693055196,0.03096239394388635,0.046099564316453005,0.020908568646465762,0.0032591544899682936,0.005540655067043749,0.02686684705799404,0.16742081447963802,-0.00020954398936050422,False,True,False
0,0.23340476031161805,0.0015993028959283603,0.22894632900841083,0.2362274050475624,2.0732161128742086e-07,2.3562273786914308e-08,1.5879347706151256e-07,2.60248337622238e-07,1.622852708442819e-07,3.870986268088365e-08,9.758447982887367e-08,2.847512140598137e-07,-1.209155339236625,0.00040628608382943564,-1.2102949106139496,-1.2087659037949885,-0.4065799886941778,17.804032780889006,-70.35,43.7,33.95648648648649,0.015294006470072403,33.93,33.99,2.8949048548704526e-05,6.031415532881939e-07,2.6483376383093966e-05,3.144900945492408e-05,0.023968433973507015,0.0011452650510385724,0.020677018014823977,0.026180106923631877,2.4839692522410657e-05,5.175248059003421e-07,2.2724025807085277e-05,2.6984780645913764e-05,0.03610141275039203,0.0007521581279445562,0.03302655354014544,0.03921903232892271,0.023968464465494256,0.0011452624274282811,0.020677053916054008,0.02618013317878714,0.1537591859807801,-0.00017514917514917184,False,True,False
0,0.226385239830465,0.0023513940288066248,0.22144937919605984,0.23101028059246792,1.9785416021167572e-07,1.625270663894745e-08,1.7123878492190079e-07,2.2981969903191506e-07,1.5073122649208252e-07,1.9908446075363786e-08,1.1844140795820895e-07,1.9627128527683752e-07,-1.2118321737934408,0.0008114723145399867,-1.2132032652928346,-1.2103353590479975,-0.06611425339366497,16.474699049594644,-44.59,42.34,33.95127272727273,0.013348476249437819,33.93,33.97,2.8611059030387692e-05,2.294820947290837e-07,2.7035113391075092e-05,2.9793798430980708e-05,0.024648904704960405,0.0003060276985498008,0.02342789412861976,0.025492722065487017,2.4549681066709e-05,1.9690680551655813e-07,2.3197443011399553e-05,2.5564529032970932e-05,0.035679917063391,0.0002861796237172006,0.03371460673889847,0.037154872732663616,0.024648933543107994,0.0003060272283458453,0.023427923468119182,0.025492750096326844,0.14479638009049775,-9.927191578568251e-05,False,True,False
0,0.21857883223487826,0.0031989444188711283,0.2126362027616208,0.22417170667480826,2.1220754111474238e-07,3.640464153878725e-08,1.5469754426095893e-07,2.9346760023478273e-07,1.6159227639122051e-07,4.3344601554237874e-08,1.051063153271743e-07,3.0604479588414663e-07,-1.2149069184429409,0.0011240480333808895,-1.2164841163943119,-1.2132188404238888,0.1893212669683254,24.44570107306984,-127.69,93.29,33.946576576576575,0.017029145897308768,33.91,33.97,2.9200244251580202e-05,1.1463672311097693e-06,2.6483376383093966e-05,3.531116851079195e-05,0.022935712136951295,0.0028648151245161905,0.008984792020279669,0.026180106923631877,2.505523066045637e-05,9.83638874715564e-07,2.2724025807085277e-05,3.02987010761137e-05,0.03641467070549831,0.0014295971248999774,0.03302655354014544,0.04403540472019392,0.02293574582730079,0.0028648041641858614,0.008984897906095114,0.02618013317878714,0.14027149321266968,-3.861003860984762e-06,False,True,False
0,0.21077144574338738,0.0023825025087585478,0.2051042948266162,0.21664390656640953,1.9780587769081402e-07,1.6724786002109357e-08,1.7081257160672881e-07,2.4600105050530296e-07,1.5701241499410812e-07,2.3197326557515634e-08,1.1293336148174322e-07,2.1658117691025303e-07,-1.217914715198829,0.0007943944747645651,-1.2189482858419722,-1.216503481198195,0.4417015262860371,20.51697569372117,-65.46,58.39,33.96127272727273,0.015090497095372845,33.93,34.0,2.9259537255831565e-05,2.5262153315144065e-07,2.7586850399056214e-05,3.089727244694296e-05,0.022852501503570297,0.000322309916294823,0.021364402872968837,0.024804000526125816,2.5106106943725434e-05,2.167615698134077e-07,2.367086021571383e-05,2.651136344159949e-05,0.03648861307414258,0.00031503606146479434,0.0344026599376515,0.03853097913016968,0.0228525340369866,0.0003223093057182566,0.021364436320299274,0.02480402823789481,0.1492368569813454,0.00023911818407229004,False,True,False
0,0.21504772427729307,0.007774459924966794,0.2027818795019297,0.2308467718470438,0.000337461708091254,0.0006244951734854595,1.3617079695091917e-07,0.0021342887332960873,0.00025996515333890854,0.001899759638539218,8.710372803084508e-08,0.019309125532684063,-1.2166354387623266,0.0025900069869400494,-1.2193718668185607,-1.2129164996826742,-1.4104694570135745,57.39465644370639,-343.95,322.79,34.008018018018014,0.021818250068143023,33.97,34.05,2.9067303094679774e-05,4.536282063952359e-06,-5.517370079811242e-07,4.248374961454656e-05,0.021419343372561652,0.007470612835753031,-0.0013259808518932118,0.04541418448013266,2.494116067796888e-05,3.892350778780446e-06,-4.734172043142766e-07,3.64531247321993e-05,0.03624888413159062,0.005657049172701495,-0.00068805319875303,0.05298009630398331,0.021422397195770552,0.007461942189046336,0.0007287487174671731,0.045414184573237946,0.11764705882352942,0.0005768690768690671,False,True,False
0,0.2137451914828908,0.002302952152017182,0.20985366105844824,0.2201850820371812,7.259923955286846e-07,1.2144349276100426e-06,1.4626990293045882e-07,6.721140685435363e-06,1.7184138549704066e-07,6.185430870116666e-08,8.916693005917714e-08,3.158630138765175e-07,-1.2167128582734343,0.0009704990610390295,-1.2174411332037256,-1.2138966522627699,0.881170152628604,20.095000609066542,-82.87,60.44,34.092909090909096,0.028392577352316487,34.03,34.15,2.5513316739683084e-05,1.0194919739782188e-06,1.7655584255395975e-05,3.144900945492408e-05,0.02936996014959536,0.0012537663513235897,0.022740509270474895,0.03443139858380286,2.1891667423002777e-05,8.747737294398128e-07,1.514935053805685e-05,2.6984780645913764e-05,0.03181682384832655,0.0012713751364359313,0.02201770236009696,0.03921903232892271,0.029369979519058845,0.0012537640420107392,0.02274054069379526,0.034431412775294,0.13566986998304126,0.0007968802831188213,False,True,False
0,8.43719438595372,0.18174337976066984,8.099327955478136,8.81166403616422,0.39433089542613736,0.3731050541381215,0.029378711692674947,1.2023831003108352,0.2245759988226994,0.40374205056279966,3.166084727723728e-08,1.820044736306901,1.5759943057996075,0.35233130720636513,0.7206389921284234,1.8349121946846907,0.4039762443438914,18.603282927490252,-100.35,45.84,33.47693693693694,0.015770674326552065,33.45,33.5,3.440741829862378e-05,5.930434663213892e-07,3.255248347088633e-05,3.751811654271645e-05,0.0039115891235829555,0.0015152459708554014,-0.0027094389960891562,0.008987465382712353,2.9523239411128328e-05,5.088601558377339e-07,2.7931615054542318e-05,3.219236989337081e-05,0.04290836735391068,0.0007395651335680867,0.04059513872642877,0.04678761751520604,0.003983294487967661,0.0013157819578308158,6.023936838859253e-05,0.008987585821307155,0.09502262443438915,-0.00033555633555634355,False,False,True
0,8.242077070693984,0.16546411744231873,7.752642620428464,8.638908847743481,0.16835788643993155,0.05906410275290159,0.030174456827909577,0.3217318751190278,0.15345493606738647,0.323730101941924,2.7976129413076478e-08,1.8989259520552375,1.7263166214995647,0.07150373129624983,1.5377976485081164,1.8350652971664927,-0.4339231204070094,34.37751789193594,-122.02,140.09,33.43836363636364,0.020161152250060085,33.41,33.47,2.5615826110363464e-05,8.459952284315981e-06,-1.8759058271358226e-05,4.303548662252769e-05,0.019212458218676738,0.017320052330662892,-0.01991477900856393,0.05435954440453022,2.1979625451885224e-05,7.259050781690667e-06,-1.6096184946685404e-05,3.6926541936513574e-05,0.03194465993577133,0.010550130127795878,-0.02339380875760302,0.05366814950273634,0.02092935625984036,0.015198290150562342,6.122689901791373e-05,0.05435954452606766,0.08592425098925946,-0.0005013186664563288,False,False,True
0,8.104783751217287,0.441051332234291,7.3381327647247945,8.938031011866002,0.3173892840659142,0.13117707117926286,0.08437171799935171,0.5769962098004635,0.22935254466685245,0.42349149486510484,2.475134408541635e-08,2.914397141991019,1.5240595740612513,0.19276610156113003,1.3152971434371377,1.867219934387464,0.44992647058823565,54.36466807871342,-300.7,236.91,33.38099099099099,0.029998634967578035,33.31,33.41,2.9648374536343154e-05,7.412558132583213e-06,1.3793425199528107e-05,4.910459371032006e-05,0.009910722982454358,0.01723062476664856,-0.015095064914251869,0.03854969266719848,2.5439748254005748e-05,6.360335625818046e-06,1.1835430107856916e-05,4.2134131183970615e-05,0.036973519344304505,0.009243959096978236,0.01720132996882575,0.06123673468901967,0.014699169373306653,0.013376077349237342,6.221442964723492e-05,0.03854969804173459,0.08597285067873305,-0.0008538083538083056,False,False,True
0,9.02219045143572,0.21605092210732518,8.52804830395892,9.345240193994883,0.29011013827645205,0.06785381717250666,0.16591658435788456,0.42662157411430435,0.24121292515329865,0.4202516806690147,3.1707395820035345e-08,2.0932919899043334,1.906966753446026,0.1007536116789394,1.796649032322717,2.0792517689759102,-1.017834934991521,76.69870365396656,-299.41,361.93,33.312363636363635,0.014521560858764304,33.29,33.33,2.8826232514159576e-05,5.281337679419325e-06,1.6552110239433728e-05,5.075980473426343e-05,0.016492995364342955,0.01361184060502011,-0.027488710919712632,0.03304927712082327,2.4734310387664993e-05,4.531644756582804e-06,1.4202516129428297e-05,4.355438279691344e-05,0.03594825288581085,0.006586183691603467,0.020641595962590898,0.06330089428527876,0.018996949567933522,0.00981417212074255,0.0006475694935786403,0.0330492863644347,0.06331260599208592,-0.00027996303225659913,False,False,True
0,8.995992662835537,0.35085593377466967,8.205250225900798,9.875940012630549,0.7662636306357452,0.19464128100640285,0.29172938899072076,1.1010225758277326,0.6068844525680939,0.817078683428304,1.7493853476935328e-08,3.8431939105723085,1.4206244480400814,0.19510605242453688,1.1398415117092435,1.9182120042808368,1.3483880090497742,73.1652629821503,-185.23,335.14,33.263693693693696,0.022071286485879055,33.23,33.31,2.5767491373869588e-05,6.38608224339484e-06,2.758685039905621e-06,5.793238583801805e-05,0.017873117553194637,0.019145348439417807,-0.028176764118465664,0.05438761471007342,2.2109761629089262e-05,5.4795693572406875e-06,2.3670860215713828e-06,4.9708806452999045e-05,0.032133796731356155,0.00796387454803117,0.0034402659937651497,0.07224558586906815,0.02352581198981386,0.011500655192664836,6.122689901791373e-05,0.054387625443577683,0.08144796380090498,-0.0004971919971920249,False,False,True
0,9.00914420830718,0.1652922098120206,8.685939919402472,9.418564772463425,0.25400414745672245,0.18080044310394963,0.0417486527898592,0.6809278833017853,0.16067480391518274,0.3326025240018927,4.1220145519105245e-08,2.1795980780065083,1.9379805338460985,0.17970315023971792,1.5497276789067,2.105709674602354,-0.5315610859728507,50.89743183443461,-222.22,225.49,33.205636363636366,0.02839845171924061,33.16,33.25,3.270290046061874e-05,3.15259943665974e-06,2.3172954335207218e-05,5.517370079811243e-05,0.009708162757643088,0.008683940652465763,-0.028167407349951268,0.028928309674994965,2.806068015209859e-05,2.7050837446765545e-06,1.9883522581199616e-05,4.734172043142766e-05,0.040782718840568444,0.00393150376973615,0.02889823434762726,0.068805319875303,0.01126733491757952,0.006532323601987298,4.147628643148994e-05,0.028928328173971573,0.06334841628959277,-0.0007397155287063545,False,False,True
0,9.235161462496329,0.1591722910496364,8.956276941790746,9.67778628912281,0.20990462562221396,0.06666634362311814,0.08627413593182844,0.3642516616686254,0.16915205840371933,0.3391114701383852,2.5874269837800057e-08,1.647940031604941,2.0696666729213913,0.02918234672778455,1.9966081690545223,2.115650147079479,0.17788015828151502,40.539486861511705,-204.37,257.51,33.152342342342344,0.021360752240539033,33.11,33.21,3.2636741950611955e-05,4.658034011900354e-06,2.04142692953016e-05,6.896712599764052e-05,0.007360606997978378,0.010887258444946977,-0.016477854717839642,0.032364565625111086,2.8003912930766783e-05,3.9968198754398615e-06,1.7516436559628233e-05,5.917715053928457e-05,0.0407002147239759,0.005808882049648724,0.02545796835386211,0.08600664984412874,0.008688983706264548,0.009858510956044864,5.431418461266541e-05,0.032364578044642794,0.11758055398530243,-0.0005282555282554968,False,False,True
0,9.250605085533463,0.2040268821085136,8.857311237405796,9.723697150689397,0.20136957504985417,0.07654786632753988,0.029888683614506327,0.35711040501169944,0.1371957848540853,0.2847186615610184,3.488504862758646e-08,1.7571902653824814,2.084219155700891,0.10684491618289839,1.9370060181789335,2.2034343807492203,-0.07959841628959355,45.61179155701601,-320.87,227.13,33.099636363636364,0.019485457891062014,33.07,33.13,3.395179837121855e-05,2.9869817614050475e-06,7.172581103754615e-06,4.579417166243331e-05,0.0053844362011797,0.006637622902518365,-0.013717621835529464,0.05161267833438348,2.9132295339692326e-05,2.562975719168161e-06,6.154423656085595e-06,3.929362795808496e-05,0.042340178626433626,0.0037249673772508925,0.00894469158378939,0.05710841549650149,0.006280427067506643,0.005796258236492821,5.431418461266541e-05,0.05161267919970235,0.11312217194570137,-0.00044785068638280044,False,False,True
0,9.050415634939489,0.19066821115686022,8.46573031063545,9.31710515140789,0.2726722898289095,0.1600595437171206,0.021661082318611698,0.5986144519471535,0.21453464493558855,0.3176560442944691,1.6929255330921933e-08,1.871078273569191,1.9350379752980165,0.18628994120964407,1.676691782271475,2.2031007944704157,0.0949689089881287,36.46160304511457,-186.01,160.8,33.06099099099099,0.021445701199031452,33.0,33.11,3.455993337563121e-05,1.3852334993636316e-06,2.0966006303282724e-05,5.4070226782150183e-05,0.004262700878693985,0.0020851659165796424,-0.004778945317213616,0.01518261753392231,2.965410476967449e-05,1.188597757817341e-06,1.7989853763942512e-05,4.6394886022799105e-05,0.04309856392415166,0.0017274794448619035,0.02614602155261514,0.06742921347779694,0.0044016994911580875,0.0017732158153236813,6.023936838859253e-05,0.015182698019097706,0.12210288298473713,-0.0004666549666550042,False,False,True
0,8.859820953674873,0.16885718363172791,8.442764843067621,9.298831509535956,0.16588193306188723,0.15890792856974179,0.029301726550868917,0.6749729289905467,0.1524308654655993,0.36700555811858765,2.1014317397316518e-08,2.547566964755152,1.9676850340050391,0.148231265505284,1.5457136080135265,2.0869623639427837,-0.2810350678733035,29.0975771293201,-207.17,107.34,33.0072972972973,0.022480130456833194,32.97,33.05,3.426199440398621e-05,1.1819794924903273e-06,2.5931639375112838e-05,4.6345908670414436e-05,0.003482547227797182,0.006233184328626798,-0.021978270264214853,0.011739678177724474,2.939845863216314e-05,1.0141959281272682e-06,2.2250608602771e-05,3.976704516239923e-05,0.04272701396555156,0.0014740080127020874,0.03233850034139241,0.05779646869525452,0.006440835284389491,0.0030765499814884557,5.431418461266541e-05,0.02197831212004622,0.06787330316742082,-0.0004745524745524585,False,False,True
0,9.036031918982816,0.2922070460507312,8.29757682840431,9.671549543799214,0.5211502016911782,0.14372969652693632,0.21879710656164464,0.8050553470710031,0.39748275141050565,0.6311642544058684,2.0434482550513167e-08,3.2897573725792153,1.6819167350890416,0.16381177771151495,1.4370058386561346,1.974328862153553,-0.20537591859807766,60.58925898724853,-262.39,264.87,32.98054545454546,0.017808170665513337,32.95,33.03,3.254749037579148e-05,4.616160293911421e-06,1.9310795279339348e-05,5.075980473426343e-05,0.0022802689878335864,0.013783868935292737,-0.029552870515971722,0.03856038611692922,2.792733073595124e-05,3.960890187530938e-06,1.656960215099968e-05,4.355438279691344e-05,0.040588912000648195,0.0057566627038568,0.02408186195635605,0.06330089428527876,0.009288322833742079,0.010432247649274189,4.6413939578095886e-05,0.038560399385061006,0.11305822498586772,-0.00024038049726123604,False,False,True
0,9.120856177226607,0.09986207769017769,8.983892405866307,9.507175754007635,0.08624817724315625,0.08161860660935563,0.022767886059633678,0.4162947566081036,0.044898823036232396,0.10576723794911429,4.960728872127618e-08,0.51731620678252,2.149104592880125,0.045599543460851044,1.9832716241433341,2.18234734839119,0.1482975113122173,15.656679580698075,-80.89,58.54,32.9254954954955,0.02168949216634926,32.89,32.95,3.3688412604965114e-05,5.779635763278335e-07,2.9242061422999583e-05,4.4138960638489935e-05,0.00976851044194799,0.0012517303234571453,0.00279298157211057,0.019318956813738544,2.890629753401289e-05,4.959208763280295e-07,2.5091111828656657e-05,3.7873376345142124e-05,0.04201171884150854,0.0007207594953802915,0.03646681953391059,0.055044255900242395,0.009768613387459293,0.001251714248717154,0.002793333626774107,0.019319044360722838,0.14932126696832582,-0.0006002106002106403,False,False,True
0,8.940145075340183,0.0960353857993984,8.724225452451643,9.15575208515656,0.054517127897481754,0.021351791471274056,0.01037179482285216,0.09683990925183883,0.03712815063743158,0.08189345526628557,3.3025584378343353e-08,0.5099836717605359,2.1106544657258444,0.028077258178459227,2.078964203927185,2.1672175526524318,-0.23304298642533927,13.919064532440856,-64.07,38.53,32.86181818181819,0.02275444580742981,32.83,32.91,3.344811990352538e-05,5.922864091979812e-07,2.6483376383093966e-05,3.9725064574640946e-05,0.010875019873500777,0.0007275514815206735,0.0069226374458450915,0.018616868462213915,2.870011470181719e-05,5.082105639820399e-07,2.2724025807085277e-05,3.408603871062791e-05,0.04171205766331859,0.0007386210323606933,0.03302655354014544,0.04953983031021816,0.010875109607026609,0.0007275455411040007,0.006922788959101172,0.018616917875380844,0.15837104072398192,-0.0005193517120122375,False,False,True
0,8.850127890589002,0.16564016314184624,8.518635416841013,9.091788030687665,0.06787868519528864,0.03608049994271276,0.004452193996349203,0.14077237771906462,0.05556269627007494,0.1446400068040746,4.2280312806397546e-08,0.6423161887884432,2.062588996435361,0.043123088576807855,1.9950117964028085,2.114421434194335,-0.04732617297908399,32.70651640251885,-111.33,104.5,32.82495495495496,0.012126145597154896,32.81,32.84,3.3596108048694695e-05,7.53691334379223e-07,2.813858740703734e-05,3.6966379534735316e-05,0.010030295771538335,0.001429310606054638,0.004170424650832972,0.01517727080905694,2.882709573253339e-05,6.46703844904882e-07,2.4144277420028106e-05,3.1718952689056526e-05,0.04189660884474806,0.0009399038418496039,0.03509071313640453,0.046099564316453005,0.010030396368334414,0.0014292905189035709,0.0041706761482895975,0.015177333492637071,0.054267947993216506,-0.0002519305019305057,False,False,True
0,8.601080749393967,0.12704666088626998,8.450950326194327,8.907977596940485,0.05681830046185586,0.04741090695355981,0.0026731299317459033,0.16273182787523385,0.04110339384724756,0.12427977878728304,9.324985988934387e-08,0.8963607120235466,1.9769628970327107,0.009711207022278096,1.9543040562898186,1.9944707999574263,0.2858597285067873,30.165070794457655,-86.48,109.46,32.782545454545456,0.01710391143828587,32.75,32.81,3.3812615845449555e-05,3.0719523146106487e-07,3.2000746462905206e-05,3.475943150281083e-05,0.008168392368582376,0.000749798286390044,0.005543857685906347,0.01242706303586933,2.9012869958965986e-05,2.635884589093027e-07,2.745819785022804e-05,2.9825283871799426e-05,0.042166608645300224,0.0003830931378373175,0.03990708552767574,0.04334735152144089,0.008168514885801836,0.000749787371581152,0.0055440236183554046,0.012427147438696714,0.15837104072398192,-0.0003189144106575362,False,False,True
0,8.583361706692534,0.11306970971011093,8.395289580422727,8.87413005937432,0.07816494040341411,0.04460189599631099,0.009051573171132109,0.1908653250081637,0.06734874787751802,0.1627871215605113,4.655412855214536e-08,0.816435828517291,1.9488019952783968,0.009197866049829986,1.9162477572808005,1.960241670731474,0.34962690785754663,25.777859968713575,-116.55,99.16,32.75216216216216,0.01713080189204349,32.73,32.79,3.4137167026614926e-05,5.778485179076349e-07,3.0345535438961837e-05,3.917332756665982e-05,0.006555285192226287,0.0016334974309218486,0.000724811932202452,0.01311444789401419,2.9291350667386155e-05,4.958221506039334e-07,2.6037946237285214e-05,3.3612621506313634e-05,0.0425713458210373,0.0007206160097831383,0.03784292593141665,0.04885177711146513,0.006555467459584576,0.0016333853460985003,0.0007259140191705799,0.013114525354096988,0.1537591859807801,-0.00038206388206392524,False,False,True
0,8.879586939568034,0.20955631003651215,8.607261835682662,9.546352214887177,0.19803531450715026,0.12404378932869536,0.015385026105853785,0.5280629161903325,0.15139997860705187,0.2676567324961466,2.5494591326946647e-08,1.7898216257977424,1.9436940311437152,0.06542632409945681,1.8658181444458481,2.0416410137718426,-0.2450509049773753,20.49172182569523,-80.08,64.76,32.717636363636366,0.0211559206247615,32.66,32.75,3.3846943374226665e-05,7.776355047569202e-07,2.427642835116947e-05,4.358722363050881e-05,0.008130295255454039,0.0010619560843577061,-0.0006553045089526359,0.02549673210913605,2.9042324649279662e-05,6.672491083834225e-07,2.083035698982817e-05,3.739995914082785e-05,0.04220941738504165,0.0009697638345300749,0.03027434074513332,0.054356202701489366,0.008131922480882252,0.0010503574805877166,5.5301715241986593e-05,0.02549676697633354,0.16289592760180996,-0.00046525257534430864,False,False,True
0,8.717515903237206,0.219389023063591,8.330944195666625,9.299682690436118,0.1903787319665326,0.1332121481952762,0.01535201277461524,0.5261445591633185,0.16660619963572817,0.339675476016673,2.3864643594606605e-08,1.772693069973987,1.8885778829584383,0.08031469796713385,1.756963392179774,1.997157181091969,-0.2593725268513287,38.651480727721435,-178.71,206.86,32.6618018018018,0.014025833191793131,32.63,32.71,2.595034232453593e-05,6.058856431407147e-06,8.827792127697988e-06,3.9725064574640946e-05,0.02285458687051873,0.01119705463233625,-0.0040888870966360735,0.04680699939284301,2.226665664359521e-05,5.1987936854083156e-06,7.574675269028425e-06,3.408603871062791e-05,0.032361824178638275,0.007555801927569228,0.01100885118004848,0.04953983031021816,0.022895708265409893,0.011112687460083539,6.32019602765561e-05,0.04680700414106533,0.06331260599208592,-0.00021884871884871843,False,False,True
0,8.8795029810731,0.13935168429670575,8.598869293959583,9.203580775952714,0.18201410904078452,0.10644477536104939,0.012137393317798607,0.41330429926233414,0.130640776339942,0.27127880248937125,3.747110444152213e-08,1.6037404263841308,1.9597093233029377,0.06716336539403443,1.8379426328386959,2.0327332723209373,0.006889140271493056,35.64561075497557,-172.18,93.14,32.61354545454545,0.02632145542796741,32.57,32.66,3.3539868025893275e-05,1.1691384000084245e-06,1.9862532287320473e-05,4.689764567839556e-05,0.008726910617291543,0.0035701818548120002,-0.004776271954780931,0.021386458113038492,2.877883905592827e-05,1.0031776458384511e-06,1.7043019355313955e-05,4.024046236671351e-05,0.04182647374953657,0.0014579943057550296,0.02476991515510908,0.058484521894007546,0.008995051486730892,0.0028267989397482863,6.122689901791373e-05,0.021386547390935536,0.04524886877828055,-0.0007037846854360266,False,False,True
0,8.894167288296787,0.1877749005207343,8.275338934555005,9.231273849743456,0.17154861848641365,0.055766938807461114,0.06627474444116344,0.293003319525505,0.12510844794854706,0.24730268531167254,2.3584638242368783e-08,1.6208658575714558,1.9760082986070235,0.07417425512749765,1.7344199301214378,2.045334010246209,-0.7220588235294099,53.03164853779335,-252.07,231.35,32.55756756756757,0.01869449195576208,32.53,32.59,3.277280379194666e-05,2.291557682018407e-06,1.8759058271358226e-05,5.4070226782150183e-05,0.011597280367961775,0.004851265519143324,-0.007526479727968538,0.03925378604054762,2.8120660612373695e-05,1.966268014748021e-06,1.6096184946685404e-05,4.6394886022799105e-05,0.04086989300149644,0.002857726725653657,0.02339380875760302,0.06742921347779694,0.011661823942369583,0.004694009727590933,5.826430712995015e-05,0.039253804244718686,0.06334841628959277,-0.0004292734292734592,False,False,True
0,8.462979511688001,0.12903822834612522,8.120542262876334,8.660081777240983,0.2684130314779863,0.1564043090394784,0.05045122716215947,0.5081150670425781,0.20172767096227195,0.36603335428022027,2.6738616654142788e-08,2.021209444836997,1.7117100610462541,0.16394733158809072,1.4992681586744157,1.9713224014510553,0.8557320520067841,38.869942502324925,-135.46,185.53,32.50127272727273,0.024536402124006845,32.45,32.55,3.304804815905037e-05,2.1742797551433913e-06,1.9862532287320473e-05,4.524243465445219e-05,0.009883707511122443,0.005367230654152295,-0.006165745164450418,0.03924509761264139,2.8356833674706946e-05,1.865637845907066e-06,1.7043019355313955e-05,3.882021075377068e-05,0.04121314126015038,0.002711473254231202,0.02476991515510908,0.05642036229774846,0.009959359196838873,0.005225534424170401,5.33266539833442e-05,0.03924510785475564,0.09044657998869417,-0.0006452223699930021,False,False,True
0,8.349433867355948,0.15047401622895104,8.152738221486505,8.776423935566376,0.03714975231940803,0.021141928805939042,0.015623120663782566,0.11003829686290104,0.021523593040597384,0.05507134446216014,4.7018423265932086e-08,0.25177691386725876,1.8991025813508662,0.04544957816954738,1.8527543786247542,1.9742419794636208,0.6162669683257923,25.515740306212464,-111.44,67.66,32.4481981981982,0.01738328341190313,32.41,32.47,3.340318204767171e-05,6.641461406835697e-07,2.9793798430980708e-05,3.751811654271645e-05,0.009706676013939592,0.0016187176139333369,0.0014148701527799958,0.01449055429152025,2.8661555834497473e-05,5.698697108048418e-07,2.5564529032970932e-05,3.219236989337081e-05,0.04165601713129345,0.0008282349560144856,0.037154872732663616,0.04678761751520604,0.009706780180920695,0.0016186915702147936,0.0014154983396779575,0.014490624395585424,0.11312217194570137,-0.0003653913653913726,False,False,True
0,7.908469952143396,0.12506096970967948,7.706784713541903,8.160252051644795,0.06488339784148858,0.048474197293142056,0.006914814223012478,0.17351675914196596,0.049336854764060745,0.14493878865528448,3.1636041342153476e-08,1.0992202924965961,1.7006815459392164,0.0629724909243065,1.6201805756537953,1.8509175027212386,-1.0421141888072356,39.60108198088897,-165.38,159.3,32.40872727272727,0.015151170415872313,32.37,32.43,3.262978899516843e-05,1.5987655142003566e-06,2.2621217327226096e-05,3.8621590558678696e-05,0.011996102172558108,0.003773759767482762,-0.0027081023148728136,0.03925378604054762,2.7997946956615735e-05,1.371818618541361e-06,1.941010537688534e-05,3.313920430199936e-05,0.04069154392037835,0.0019937682449954887,0.02821018114887423,0.0481637239127121,0.012002310725105342,0.0037541915169007215,0.0007301699533682611,0.039253804244718686,0.058790276992651214,-0.0003362261343912579,False,False,True
0,2.2919569994195985,0.07107903189420034,2.190825001735051,2.495141728042685,0.018792485375380228,0.024582202062121652,0.00030724520034193704,0.09278087927940595,0.013519712146104652,0.04341902205386288,4.452739550686591e-08,0.2744103448610773,-0.42985811832774423,0.007210694630281038,-0.45229450476021305,-0.42084539594824966,0.0066628959276018584,8.800567961268685,-39.73,32.75,32.41504504504504,0.017574458422995865,32.37,32.45,1.3762842492072139e-05,7.446173062120773e-07,1.1034740159622484e-05,1.7103847247414853e-05,0.0392520489532718,0.0004125740782791175,0.037174254610300585,0.041296558737345224,1.1809188656486554e-05,6.389178871304013e-07,9.468344086285531e-06,1.4675933333742575e-05,0.017163191273419757,0.0009285879177486893,0.013761063975060599,0.02132964916134393,0.03925205315876298,0.000412573697363182,0.0371742605889015,0.041296561297062426,0.13574660633484165,0.00024043524043526393,True,False,False
0,2.0729372475791625,0.06290626567689057,1.9718250305524265,2.1907560445446896,0.0011060313986154722,0.0012143864472608013,3.4085209003392224e-06,0.0038444346382505994,0.0009085969224621893,0.004082271383754478,6.099042364085625e-08,0.031963613824000675,-0.49741184886515466,0.023275508472271667,-0.53443474490864,-0.4534278717906248,0.05429621254946295,5.402827143959227,-17.27,9.24,32.42890909090909,0.009706278545493033,32.41,32.45,1.3464505060154745e-05,2.73406205220262e-07,1.2689951183565858e-05,1.3793425199528107e-05,0.03925013088403174,0.00010507910328701242,0.03854701930476579,0.03992379404288002,1.1553200620669557e-05,2.345958299791632e-07,1.088859569922836e-05,1.1835430107856916e-05,0.016791144408030676,0.00034095594701735927,0.01582522357131969,0.01720132996882575,0.03925013489548844,0.00010507909644451407,0.03854702325367849,0.03992379817996137,0.12662521198417184,-5.049252755675563e-06,True,False,False
0,1.9275267920902586,0.04605000401594225,1.7760395279763859,2.03725333978092,0.017086706200925023,0.02206473044354349,1.5797223790798794e-05,0.07746002391488671,0.016203133254504308,0.05184904749057339,2.5557805760634267e-08,0.329612472582008,-0.5696613392638868,0.023644862662663062,-0.6038057508807336,-0.5349626438753443,0.13024321266968336,32.12518678768137,-271.27,114.14,32.40927927927928,0.015238212237762836,32.39,32.45,3.983241611918027e-06,1.8075708158849766e-05,-3.531116851079195e-05,2.6483376383093966e-05,0.035162475494836774,0.008492160103057637,0.011666829051433802,0.05089388146765457,3.417815156033613e-06,1.5509837293452274e-05,-3.02987010761137e-05,2.2724025807085277e-05,0.004967370491450043,0.022541625155672564,-0.04403540472019392,0.03302655354014544,0.03516248790792486,0.008492143671802253,0.0116668749202162,0.05089388712233615,0.08597285067873305,-0.000128817128817126,True,False,False
0,2.119646563055006,0.07149232853086983,1.980405415127483,2.2083503483794424,0.012151214173227736,0.01280233815477069,8.805467199867259e-05,0.04622031675014513,0.006010622689221403,0.03463719342560564,6.195408808196134e-08,0.2925655726139609,-0.4903322217166077,0.03460421492172481,-0.5783139773125245,-0.4604795133856867,-0.41916902204635387,35.33620843433782,-138.63,252.99,32.398545454545456,0.013669517661359471,32.37,32.43,1.9937344085012838e-06,1.8915339503556054e-05,-4.303548662252769e-05,3.8621590558678696e-05,0.03462587401868064,0.009678128536653693,0.008901917784866426,0.054401649862845014,1.7107211518610792e-06,1.6230281849672957e-05,-3.6926541936513574e-05,3.313920430199936e-05,0.002486321050409253,0.023588701976950854,-0.05366814950273634,0.0481637239127121,0.03462588948909567,0.009678105575369484,0.008902039380862661,0.05440167232500608,0.13566986998304126,9.945224624121368e-05,True,False,False
0,2.087557548002709,0.03750035828624831,2.033606976234368,2.16385516256764,0.006301978371266656,0.007732382469000349,8.99257827077634e-06,0.026926757699285573,0.004926769912907242,0.022458651879059856,5.5144797346529106e-08,0.1633944142770907,-0.49695893013122583,0.013273221126975989,-0.513271407610255,-0.47743522197803634,0.24177601809954752,7.880705012978623,-29.45,21.65,32.39648648648649,0.013256123706604072,32.37,32.43,1.180617335177709e-05,6.569399506159849e-07,7.72431811173574e-06,1.3793425199528107e-05,0.04004592132263575,0.00032940616494504083,0.039233067481694306,0.04198060189244923,1.0130271308607302e-05,5.636864490221369e-07,6.627840860399872e-06,1.1835430107856916e-05,0.014723093108158726,0.0008192483517898254,0.00963274478254242,0.01720132996882575,0.040045924355563436,0.0003294059276053098,0.03923307045221225,0.041980603126273414,0.12669683257918554,-0.0002530712530712315,True,False,False
0,2.0175559391804354,0.03321313526878812,1.9660329574259134,2.1037220870982636,0.003482352892424468,0.006006306336454911,1.7440786794234713e-05,0.02329467626368487,0.0025354619754194385,0.014474214960833214,5.41862185468589e-08,0.10324828488705856,-0.5211282889247304,0.008793976655855905,-0.5369959415830985,-0.5123992717515404,0.030469457013574584,9.931180115633932,-47.5,32.11,32.375454545454545,0.013789795697827694,32.34,32.39,1.0645278742224044e-05,1.043669435049071e-06,4.413896063848994e-06,1.3793425199528107e-05,0.04065940425644084,0.0004115234552452885,0.03922838909743711,0.04542287290803889,9.134167236181337e-06,8.955191676866733e-07,3.7873376345142126e-06,1.1835430107856916e-05,0.013275379364176108,0.0013015260583188004,0.00550442559002424,0.01720132996882575,0.04065940670192979,0.000411523187372495,0.039228390417824784,0.0454228745894314,0.14479638009049775,-0.00011973942249170479,True,False,False
0,2.0787353259603853,0.07403834640305311,1.9633525482350336,2.24958734978972,0.01996719797699616,0.026380247993954675,3.912995313673646e-05,0.09028176093814323,0.0156939069015928,0.04867211755907199,4.698966868388332e-08,0.2841083470361004,-0.5138211722216361,0.012976596210763993,-0.5369768396543111,-0.4964411227075012,-0.07045223289994346,14.330087758977092,-82.0,88.77,32.34504504504505,0.013609747434290711,32.33,32.37,1.0418717052295144e-05,6.712578374674336e-07,6.069107087792367e-06,1.3793425199528107e-05,0.040616321073666875,0.0003486409319745196,0.037854956062363734,0.04267266513485129,8.939766280111108e-06,5.759718927513949e-07,5.2075892474570424e-06,1.1835430107856916e-05,0.012992841681882725,0.0008371037207518808,0.00756858518628333,0.01720132996882575,0.04061632340390185,0.0003486408736570642,0.03785495832423625,0.04267266761202284,0.08140192198982475,-0.00018708318708316832,True,False,False
0,1.9946787735050358,0.019007956108733657,1.969339062696239,2.048345164423722,0.006053460677628614,0.007649476127380448,0.0002254348842300529,0.030601323482900317,0.004671193944273583,0.016712694855646085,5.253169551439063e-08,0.09848457823453985,-0.5327305473114985,0.003894445597551697,-0.5370887899759773,-0.5239613323911045,0.08365384615384588,13.55909414624985,-70.02,90.21,32.333,0.009340648072914194,32.31,32.34,1.1761859632810278e-05,9.707902610240854e-07,6.620844095773492e-06,1.8759058271358226e-05,0.04004353262152779,0.0005477068024782754,0.03647951800546584,0.04405144489479003,1.0092247981111473e-05,8.329852895517069e-07,5.681006451771319e-06,1.6096184946685404e-05,0.014667830916856165,0.0012106408211768217,0.00825663838503636,0.02339380875760302,0.0400435356466352,0.0005477063978579321,0.03647952062066018,0.04405144835026842,0.13574660633484165,-7.271825620448888e-05,True,False,False
0,1.867068019641239,0.12299918907434652,1.6261384395197012,1.991915412893925,0.035428071181001844,0.032692779568942336,0.00026837675561101323,0.10911073429897551,0.029982353898324297,0.05120065064869936,2.34325540082736e-08,0.30460523758174496,-0.6111645627461242,0.057866859694513,-0.6842440285214222,-0.5364998494282539,0.28603730921424464,66.24313485697671,-435.63,615.36,32.31990990990991,0.011077864537854518,32.31,32.34,6.455011277555436e-06,1.4459690837286714e-05,-2.813858740703734e-05,3.751811654271645e-05,0.033567711159356264,0.011303127191793577,0.004792312129377043,0.05714584257055908,5.538713823129966e-06,1.2407118450302016e-05,-2.4144277420028106e-05,3.219236989337081e-05,0.008049833694789685,0.018032208080403723,-0.03509071313640453,0.04678761751520604,0.033567722267595274,0.011303113427698309,0.004792383595881275,0.057145857072870634,0.09949123798756358,-0.00017479817479814126,True,False,False
0,1.789950088163597,0.040924979213210595,1.7121421314899012,1.8696983085802807,0.018595494719773058,0.014699643124358144,0.0010033524761305299,0.049552264503900524,0.012544730910589627,0.036862338383687084,2.391622208608446e-08,0.30747357569161127,-0.6246552030429645,0.02040203711267387,-0.6740128535946732,-0.5946194210253692,-0.38522058823529187,158.3537003464727,-600.95,653.83,32.32630630630631,0.012928328861136294,32.31,32.34,1.7021461178349797e-05,1.3384385504462947e-06,3.86215905586787e-06,2.482816535915059e-05,0.03615119510314672,0.000825454790815056,0.0316778491075744,0.04131326725254951,1.4605242076989762e-05,1.1484454142695742e-06,3.313920430199936e-06,2.1303774194142445e-05,0.021226908185964514,0.0016691229927437597,0.00481637239127121,0.03096239394388635,0.03615120211876356,0.0008254541262755534,0.03167786313111912,0.041313280205875325,0.16289592760180996,0.00027974727974729364,True,False,False
0,1.795328694253773,0.030398114140113168,1.7227391478759848,1.8478045550519522,0.006181021655420383,0.005596996627077614,0.00010082550182405702,0.020999758396202124,0.0034179870531471594,0.01474050692247715,4.0370689373056545e-08,0.11378902564056093,-0.6099231536193459,0.009218741133569826,-0.6247874126931898,-0.5954984300433999,0.07874505370265746,32.62334877336974,-221.07,150.35,32.339909090909096,0.011045814064172512,32.31,32.37,1.6363620899603073e-05,6.944387241310575e-07,9.379529135679113e-06,1.9862532287320473e-05,0.03628115947689049,0.0005002906846114212,0.03373332027592727,0.038551697689022994,1.4040783102615048e-05,5.958622216564198e-07,8.048092473342702e-06,1.7043019355313955e-05,0.020406537064374362,0.0008660118472471464,0.01169690437880151,0.02476991515510908,0.03628116589831084,0.0005002904793343806,0.03373332641782819,0.03855170427660015,0.10401356698699829,0.00012149764443339495,True,False,False
0,1.6983399040569398,0.023701872061982886,1.6538646813491515,1.7497775991918578,0.0005309488365979144,0.0007317550090961445,7.239529543078397e-07,0.0027687836625349452,0.00041224787654259976,0.003196773500503412,7.433632892919761e-08,0.02985361554527426,-0.6418842511166427,0.008700193777713887,-0.6575958030520421,-0.6251560087860373,0.10387443438914033,22.248187358175095,-148.63,160.19,32.341171171171176,0.012265156763533711,32.33,32.37,1.6501555151598354e-05,3.308849433715536e-07,1.4896899215490354e-05,1.82073212633771e-05,0.03634904220490624,0.000290590493851818,0.03511076335464967,0.037174922950908754,1.4159137403693617e-05,2.839153846392116e-07,1.2782264516485466e-05,1.5622767742371126e-05,0.02057855036406263,0.00041263580367587244,0.018577436366331808,0.022705755558849988,0.036349048711608066,0.00029059040353842324,0.03511077012869453,0.03717492934882083,0.12669683257918554,-8.28360828360893e-05,True,False,False
0,1.593306672675873,0.06009869997928001,1.4240213848004963,1.6541599200194894,0.009037868072245872,0.014003668808367394,1.955021587607275e-05,0.06786213018997633,0.012132478397655437,0.05338923495390824,2.4234196815964282e-08,0.46368327780758345,-0.691126264066498,0.03291223268820912,-0.7688802922195314,-0.6580100279921197,0.5138574660633479,27.92595185144684,-182.63,171.05,32.33672727272727,0.013279569111853358,32.31,32.37,1.2242445035689765e-05,9.393457428573902e-06,-1.434516220750923e-05,2.427642835116947e-05,0.03228094440648885,0.008850934443954753,0.006863155131717845,0.04337609016759225,1.0504613645502869e-05,8.06004362649672e-06,-1.230884731217119e-05,2.083035698982817e-05,0.015267153273236066,0.011714273897867297,-0.01788938316757878,0.03027434074513332,0.032280950730036784,0.008850934726287858,0.006863181161343907,0.043376101432621515,0.13122171945701358,-1.9836350111573215e-05,True,False,False
