,EDA_mean,EDA_std,EDA_min,EDA_max,EDA_phasic_mean,EDA_phasic_std,EDA_phasic_min,EDA_phasic_max,EDA_smna_mean,EDA_smna_std,EDA_smna_min,EDA_smna_max,EDA_tonic_mean,EDA_tonic_std,EDA_tonic_min,EDA_tonic_max,BVP_mean,BVP_std,BVP_min,BVP_max,TEMP_mean,TEMP_std,TEMP_min,TEMP_max,ACC_x_mean,ACC_x_std,ACC_x_min,ACC_x_max,ACC_y_mean,ACC_y_std,ACC_y_min,ACC_y_max,ACC_z_mean,ACC_z_std,ACC_z_min,ACC_z_max,Resp_mean,Resp_std,Resp_min,Resp_max,net_acc_mean,net_acc_std,net_acc_min,net_acc_max,BVP_peak_freq,TEMP_slope,0,1,2
0,6.05310019127785,0.15124628794582762,5.80512007180336,6.393979404037689,0.39627580144695806,0.13449965318965068,0.11946689192634342,0.7187475716617547,0.296373079957467,0.49793066991043505,7.730555617868617e-08,2.1262603348642077,0.3795505021139591,0.13128535176685557,0.22308660802407787,0.5785679153056292,0.10208710407239768,61.39838564781374,-282.98,287.63,33.079189189189194,0.018641846140295414,33.03,33.11,2.9860581077874357e-05,3.1358649272040713e-06,1.434516220750923e-05,4.08285385906032e-05,0.018678209935577558,0.00751708968711374,-0.008898576081825569,0.03855102934841482,2.5621831794126626e-05,2.6907247211427464e-06,1.230884731217119e-05,3.5032873119256466e-05,0.03723815518997875,0.003910634709669529,0.01788938316757878,0.05091593670772422,0.019000468151027426,0.006659743960170816,4.246381706081113e-05,0.03855103551794891,0.11312217194570137,-0.0004433134433134643,False,True,False
0,5.798077670029797,0.10550395317419022,5.461631702149146,5.943606577361645,0.13249942557098163,0.0878915788253227,0.012571320065844771,0.34489951409169173,0.1039015101639935,0.2206191052915376,4.778037787644962e-08,1.6220915254925328,0.4032634140064625,0.1544046006975132,0.033770434921888026,0.5795365552639042,0.14662521198417178,14.460136382617957,-42.69,46.0,33.019090909090906,0.02203189741608972,32.97,33.05,2.9110368539872872e-05,1.1749877391039465e-06,2.7035113391075092e-05,3.255248347088633e-05,0.02002927900890673,0.0019347024213873592,0.014485875907263052,0.022739840929866726,2.497811292581694e-05,1.0081966634530587e-06,2.3197443011399553e-05,2.7931615054542318e-05,0.036302589641448044,0.001465288825457436,0.03371460673889847,0.04059513872642877,0.020029316508009567,0.0019346950611762307,0.014485931092849692,0.022739871157108068,0.13114754098360654,-0.00047787570723349025,False,True,False
0,5.554620790266121,0.08796432825831844,5.383788426582354,5.754494910249335,0.1928341147971124,0.11676453196226307,0.012034689824970022,0.47649740115333183,0.1310837620678175,0.3449748075985917,1.1353644868705715e-07,2.507681369179867,0.11346415844650855,0.12263521296942707,-0.06770402337116765,0.2464562926805064,0.013834841628959232,45.63925084584653,-226.31,234.46,32.97810810810811,0.015106501521080047,32.95,33.0,3.08336104844836e-05,2.844408309344222e-06,2.372469134318834e-05,3.9725064574640946e-05,0.013846671057693594,0.009865225270189699,-0.011654798920486719,0.02892964635621131,2.6456738379563227e-05,2.44064075865672e-06,2.035693978551389e-05,3.408603871062791e-05,0.03845158837646741,0.0035471686827122277,0.029586287546380288,0.04953983031021816,0.015578370483681764,0.006805240746609441,6.418949090587729e-05,0.02892966653514959,0.0904977375565611,-0.0002390312390312336,False,True,False
0,5.40853999016062,0.05006513669102168,5.333670834417654,5.497747501167732,0.0036228808310307466,0.002910035211138572,0.00016638080932699612,0.010902073465096198,0.0021269127322696276,0.009851184347769116,1.8222756105468196e-07,0.07903294937082844,0.1651430860726934,0.046650640005911626,0.09405512993701937,0.24113115926271678,0.021633691351045793,12.716429871457507,-29.0,21.48,32.968636363636364,0.019605151575718443,32.95,33.0,2.89091489232686e-05,2.7005892483562403e-07,2.869032441501846e-05,2.9242061422999583e-05,0.020602755926952453,0.00022520918777887657,0.019988296475462776,0.02136507121357701,2.480545670198567e-05,2.3172370050655473e-07,2.461769462434238e-05,2.5091111828656657e-05,0.03605165523093418,0.0003367816629971515,0.03577876633515756,0.03646681953391059,0.02060279115179203,0.00022520855936870052,0.019988332225490985,0.021365105958624828,0.14471452798191067,0.00048765863444760445,False,True,False
0,5.293936760123402,0.02280326815995946,5.25922981273726,5.341809842736693,0.01736985472020086,0.013358320093333273,0.0001832966628165232,0.047772297013398385,0.014097367244522374,0.04721210056245419,1.4083517257956757e-07,0.2870669205390479,0.04349487027312387,0.0206350270924921,0.012564972229809568,0.09274168810044714,0.14395361990950228,13.284337396734804,-34.76,29.41,33.082882882882885,0.05351953572613168,33.0,33.16,2.915593053261339e-05,2.818686195076404e-07,2.813858740703734e-05,3.089727244694296e-05,0.020409164472544598,0.00040365805624157085,0.01930091161731792,0.02136507121357701,2.5017207332960538e-05,2.418569932792996e-07,2.4144277420028106e-05,2.651136344159949e-05,0.036359408514195744,0.00035150914742874723,0.03509071313640453,0.03853097913016968,0.020409200654963527,0.0004036570140188065,0.019300950078210317,0.021365105958624828,0.16742081447963802,0.0016051246051245985,False,True,False
0,5.086306229712035,0.17116367091052082,4.827620566931404,5.254656976585472,0.11491705920360692,0.07537229783998974,0.0023137544372679323,0.2666479345194734,0.09383659323232217,0.14344185498450834,4.4188761982866254e-08,0.9003026961706997,-0.2493550660135108,0.2060628780716655,-0.5169936001141214,0.011715644376715462,-0.14711538461538465,17.62084443882027,-69.03,111.72,33.20963636363636,0.05901216283786337,33.15,33.37,2.7712926050201218e-05,1.7128230648097059e-06,2.427642835116947e-05,3.365595748684858e-05,0.018197707193420228,0.00327551979679681,-0.0006499577840872653,0.028244266519890968,2.3779039260138584e-05,1.4696855478198467e-06,2.083035698982817e-05,2.8878449463170872e-05,0.034559884763610896,0.0021360056903788577,0.03027434074513332,0.04197124512393483,0.018199220885296144,0.003267294578685606,0.0006512774675035459,0.02824429085625743,0.14479638009049775,0.0017026801613958002,False,True,False
0,4.716068294712308,0.055397122969389215,4.628962149229361,4.817649855386454,0.011338843368044343,0.019999818338389437,4.85599350295317e-05,0.09725991559007513,0.003138620720429598,0.012777889601019185,1.5297633670918742e-07,0.10567451448031284,-0.49439661396775586,0.041939863147720746,-0.5721589454580793,-0.4380709161524256,0.016885245901639347,12.894559345373985,-29.71,22.36,33.50135135135135,0.0813799895717788,33.34,33.63,2.6302376685905588e-05,2.7593988527150855e-07,2.5379902367131716e-05,2.7035113391075092e-05,0.015736441856503892,0.00031209196706580766,0.015168582381150712,0.016545357119264945,2.256871925815865e-05,2.3676985077011286e-07,2.177719139845672e-05,2.3197443011399553e-05,0.03280083473059976,0.0003441156166401313,0.03165044714263938,0.03371460673889847,0.01573648004713264,0.0003120908819983066,0.015168620866554074,0.01654539391959541,0.14019219898247595,0.0024894699894700144,False,True,False
0,4.5699242944787555,0.02978295998270412,4.514397986524108,4.630337909428976,0.007132147781503703,0.004884716571303512,0.00020505175829751428,0.01564565707146541,0.005225289432914904,0.01700155346190607,1.2729544643375057e-07,0.11381027711263743,-0.6279565972305637,0.025037910866001236,-0.6796988441463161,-0.5738973182242125,-0.018359728506787496,13.943092417769652,-53.09,25.81,33.698,0.039742289079573764,33.63,33.77,2.7250440617040573e-05,5.356812041387471e-07,2.5931639375112838e-05,2.869032441501846e-05,0.015228555450847028,0.0008993885286144946,0.013106427806716137,0.016546025459873118,2.3382204250639853e-05,4.5964054322734017e-07,2.2250608602771e-05,2.461769462434238e-05,0.03398313428818557,0.0006680305302850905,0.03233850034139241,0.03577876633515756,0.015228598047471887,0.0008993843208268014,0.013106478214860018,0.016546063807972206,0.13574660633484165,0.0011589838378829249,False,True,False
0,4.684936174375767,0.1406057343920249,4.484347091337658,4.897246437599045,0.046163981543099655,0.04601795590651889,0.002394074864292461,0.14725905898562497,0.03771812677998315,0.11210881920543282,9.68135407120041e-08,0.9225724917965739,-0.5584359777361608,0.1267146455886695,-0.703798755603627,-0.360407952233883,0.05211418880723573,13.69938232854993,-61.39,58.42,33.781711711711715,0.02648752275296586,33.75,33.83,3.1141034221090546e-05,2.6871202889947017e-06,2.372469134318834e-05,3.6966379534735316e-05,0.002971083616512935,0.008168131315850907,-0.008907932850339967,0.01929623323306072,2.6720522907008395e-05,2.30567998243751e-06,2.035693978551389e-05,3.1718952689056526e-05,0.03883496647560746,0.003351019930749731,0.029586287546380288,0.046099564316453005,0.0060658885933649225,0.0062226009981470876,5.628924587130778e-05,0.0192962622124127,0.14471452798191067,-0.00023727623727623032,False,True,False
0,4.927008341609487,0.02863486237673973,4.887457523132171,4.983678568376448,0.018764875839519475,0.013780269154088552,0.0001379264606572008,0.03950957049356538,0.014545377429655167,0.03745206638059009,1.1716645166581774e-07,0.20220402112898206,-0.3034148197966541,0.026411662291281814,-0.3588098082889048,-0.27079147254149416,-0.08582579185520355,9.758910318968187,-22.61,18.84,33.83690909090909,0.06723565915160835,33.73,33.95,3.2545617965130904e-05,1.69017786617081e-07,3.2000746462905206e-05,3.365595748684858e-05,-0.002066766215851365,0.0003723938342318259,-0.0034008338978830425,-0.0006486211028709228,2.792572411647959e-05,1.4502548653104474e-07,2.745819785022804e-05,2.8878449463170872e-05,0.04058657697848048,0.00021077656029196062,0.03990708552767574,0.04197124512393483,0.002067231777252281,0.00037227886575522237,0.0006500378253526249,0.00340110438538573,0.13122171945701358,0.002075603543493444,False,True,False
0,4.959185754413733,0.029530229014495823,4.8853104552598055,4.990123790359268,0.022824321660864674,0.020168474160034006,0.00019705344518837676,0.07470271161921008,0.01646074338948617,0.048647583994834015,7.953002234550866e-08,0.3225026074298465,-0.2769602837577817,0.03382937885169786,-0.33287218664602264,-0.23845278099404327,0.2088694177501416,18.939209023265548,-112.33,126.79,34.02171171171171,0.05858752386385625,33.93,34.11,3.292259664479222e-05,8.330977872822846e-07,3.0345535438961837e-05,3.6966379534735316e-05,-0.0028026198903909924,0.0034427263285652997,-0.019227394150419075,-0.0006479527622627514,2.8249190170106083e-05,7.148384459812812e-07,2.6037946237285214e-05,3.1718952689056526e-05,0.04105669477491355,0.0010389290352501737,0.03784292593141665,0.046099564316453005,0.0028034418631148117,0.0034423301084257622,0.0006494193694332422,0.01922743880588759,0.14019219898247595,0.0017772902772902701,False,True,False
0,4.892783246587826,0.006179398574334928,4.872129189563597,4.905392006484449,0.008012019717949634,0.007032857953792693,0.0005670004170684969,0.02451649292593954,0.004641770328381367,0.02281028577609303,1.7849439015726887e-07,0.21546604970437164,-0.32475687049868934,0.006479385487255147,-0.33426398224335196,-0.3101992639189665,-0.21598416289592787,32.946784054940025,-156.27,140.24,33.98145454545455,0.05756267208600922,33.87,34.11,3.403293616650989e-05,5.762823224703388e-07,3.2000746462905206e-05,3.751811654271645e-05,-0.0032208005421850497,0.001394645776002785,-0.00615171001167882,0.0014168751746045098,2.920191551679737e-05,4.944782786964687e-07,2.745819785022804e-05,3.219236989337081e-05,0.042441362920367896,0.0007186628586170649,0.03990708552767574,0.04678761751520604,0.0032730354627488896,0.0012678570616189997,5.9251837759271344e-05,0.006151869858515148,0.15837104072398192,-0.0017310822081464318,False,True,False
0,4.835882304435605,0.06211136534259412,4.7576813531758555,4.911225906684402,0.025906450308393544,0.016424254727835912,0.00014391066431454995,0.06407386119126597,0.020382310337285162,0.04540742073890136,6.19242579436019e-08,0.31435918149804043,-0.39644607584033614,0.06560332980880627,-0.4707003469521883,-0.30681690617912094,0.1360067873303171,22.352862013298864,-91.51,56.52,33.87954954954955,0.08456721250942002,33.79,34.07,3.1885905275723617e-05,1.6387479733382852e-06,2.427642835116947e-05,3.8069853550697574e-05,0.00904480514452666,0.008763440313981383,-0.00271144401791367,0.02411862068980547,2.7359658522633216e-05,1.4061255143139502e-06,2.083035698982817e-05,3.2665787097685084e-05,0.03976387083472262,0.002043629063657134,0.03027434074513332,0.04747567071395907,0.01034757897851378,0.007176848613330114,5.9251837759271344e-05,0.02411865383484074,0.13574660633484165,0.0017748332748332787,False,True,False
0,4.749780926838362,0.0108761748925546,4.723708556910557,4.766342465583514,0.003741474231999113,0.0034904552975105006,0.00027224680778242875,0.012378698822349252,0.0024041842820814612,0.00997142601605875,1.3996662916182512e-07,0.07309769913351805,-0.4548749568447073,0.010725620923415051,-0.4686583097915267,-0.44089041096379833,-0.09687959299039015,12.942797490747974,-27.3,34.79,34.25145454545455,0.10088449534575455,34.09,34.41,3.0830565260667275e-05,2.6767246594984857e-07,2.9793798430980708e-05,3.144900945492408e-05,0.016162669879584736,0.00038126774067685803,0.015174597446624253,0.0179261419010282,2.6454125429326462e-05,2.2967600264041216e-07,2.5564529032970932e-05,2.6984780645913764e-05,0.038447790777326095,0.00033380558808048275,0.037154872732663616,0.03921903232892271,0.01616272097478655,0.0003812661604646883,0.015174652060621735,0.01792618649579336,0.14019219898247595,0.003131979352162826,False,True,False
0,4.734505417728136,0.029394691166614875,4.702377230315887,4.830751138233733,0.01436640660285891,0.02675424219244852,8.236077542943096e-05,0.10596897909676051,0.02021860103066269,0.07982525506381988,1.523930861571654e-07,0.6054031609745383,-0.4802234189395884,0.010072058999012517,-0.4916560981826802,-0.4642899430109967,-0.04469457013574682,19.98622200622465,-121.79,135.1,34.494144144144144,0.043032090952692836,34.41,34.59,3.230844594812545e-05,1.2018818173168529e-06,2.9242061422999583e-05,4.248374961454656e-05,0.009262474046159945,0.00972448868712309,-0.018539340951666042,0.01861887348403843,2.7722218983403307e-05,1.0312730914178099e-06,2.5091111828656657e-05,3.64531247321993e-05,0.04029080750390339,0.0014988275518329145,0.03646681953391059,0.05298009630398331,0.01313608982544474,0.002775933512647094,5.5301715241986593e-05,0.018618928044145527,0.16742081447963802,0.0012067392067391866,False,True,False
0,4.773403338977868,0.04443050728714374,4.713164311862608,4.916827616350085,0.04212532334527649,0.041456307812401935,0.0013492039676278418,0.12750120585382232,0.023209872762661024,0.08780117146115823,8.817454721921081e-08,0.5836779417425868,-0.47121951862079087,0.004098852656152022,-0.4824127385333381,-0.4662859241183065,-0.0991577162238545,40.253103664977935,-186.74,187.12,34.414545454545454,0.11420757187928554,34.25,34.59,3.1921481078274434e-05,2.4821224822518144e-06,2.372469134318834e-05,5.1311541742244554e-05,0.01003100593438498,0.011137704737852206,-0.015093059892427353,0.02755353995870525,2.7390184292594657e-05,2.1297818875935685e-06,2.035693978551389e-05,4.402780000122772e-05,0.039808236255909187,0.003095373862738241,0.029586287546380288,0.06398894748403179,0.013501719473227654,0.006502492021491894,6.418949090587729e-05,0.027553561145439453,0.1492368569813454,-0.003532403128733409,False,True,False
0,4.724334007237301,0.011382870257575221,4.699756081062229,4.774564016619399,0.011350323607090975,0.012252748380291797,0.00048328166612748706,0.044062745765425466,0.008701346460426798,0.04053024023710871,1.6573360661631398e-07,0.32224713323000675,-0.48666447264130397,0.00906932611461746,-0.4999561036637574,-0.47395321169526605,0.2443891402714931,16.29079038800496,-44.13,70.96,34.22045045045045,0.019789225139287756,34.18,34.27,3.095157235609947e-05,9.652273420479463e-07,2.869032441501846e-05,3.255248347088633e-05,0.01745364485791586,0.0020001181108431454,0.013111774531581506,0.02067768635543215,2.6557955406277475e-05,8.282120343387811e-07,2.461769462434238e-05,2.7931615054542318e-05,0.038598694773033376,0.0012037034866486539,0.03577876633515756,0.04059513872642877,0.01745369344225651,0.0020001103501520283,0.013111842333075576,0.02067772362300054,0.13574660633484165,-0.00034994734994735194,False,True,False
0,4.690944942177423,0.01302682749549466,4.6729285823268505,4.718507157778609,0.011304518512464553,0.01746283516685572,0.00013460282531968024,0.07170704474688047,0.014935451325377687,0.04054012274203105,1.8485406955148775e-07,0.21399480641160062,-0.5182189467750303,0.02515486521974961,-0.5917731906558363,-0.4842865600253342,0.009852941176470436,10.599965925609792,-30.92,22.04,34.26563636363637,0.04425794434936745,34.18,34.37,3.11519202967804e-05,2.752068180452804e-07,3.089727244694296e-05,3.144900945492408e-05,0.017640689320626214,0.0004260554031799702,0.016550703844130314,0.0186148634403894,2.6729863689744538e-05,2.3614084341372214e-07,2.651136344159949e-05,2.6984780645913764e-05,0.03884854214497877,0.0003432014324498227,0.03853097913016968,0.03921903232892271,0.017640737119110073,0.00042605382931410266,0.01655075391726752,0.01861490796104515,0.13574660633484165,0.0013088384464531291,False,True,False
0,4.592959202040488,0.07373698543111216,4.4773978652446935,4.778981771830222,0.12533721813535703,0.06068173356060835,0.05699729357963346,0.2829280510467778,0.09469878359762259,0.20367958203346903,4.755385152321878e-08,1.1268775627478105,-0.7242957714384937,0.05542963527644072,-0.7859502977892247,-0.5951650302261902,-0.3036743923120405,48.71509056450988,-313.46,267.91,34.403153153153156,0.022155729075711963,34.37,34.45,3.1434670527033045e-05,3.320932588845712e-06,1.6552110239433728e-05,4.4690697646471064e-05,0.008253510984597154,0.007867396172232814,-0.01853867261105787,0.03580282659705172,2.6972477147948538e-05,2.849521781546502e-06,1.4202516129428297e-05,3.8346793549456406e-05,0.03920115072036755,0.004141426544794409,0.020641595962590898,0.05573230909899543,0.009704874708803025,0.0059836464969357465,4.8389000836738265e-05,0.03580283616312054,0.1492368569813454,-0.0001551421551421608,False,True,False
0,4.622906486902106,0.02699144201371886,4.5782761639541345,4.71884070784865,0.0444848539631389,0.03429550623824206,0.0035257923457452708,0.13794113405725794,0.03000053774556085,0.0967000340514686,9.374755771673904e-08,0.7213884497261742,-0.6152106243079379,0.030334371864085177,-0.6725746563533587,-0.5617782096170137,-0.1958880090497738,45.16807161209711,-260.4,227.52,34.23486486486487,0.07791446201228197,34.09,34.37,3.380824688724156e-05,1.2420279698795944e-06,2.427642835116947e-05,4.248374961454656e-05,0.0023557385601300166,0.007102616169042811,-0.02954551876928184,0.012425058014044818,2.9009121180198793e-05,1.0657204441153793e-06,2.083035698982817e-05,3.64531247321993e-05,0.04216116026024223,0.0015488925072171772,0.03027434074513332,0.05298009630398331,0.007080834633863482,0.002410380489245395,5.9251837759271344e-05,0.029545552051608432,0.09502262443438915,-0.002393295893295881,False,True,False
0,4.683715098034372,0.05540162901695399,4.618156441837623,4.753967036124242,0.02304646034771622,0.022723690628889008,0.0011792868211861832,0.08598543115635823,0.017571744260650217,0.06653924285988612,1.319395188936756e-07,0.531352356190707,-0.5369785479677024,0.044075926500678014,-0.5852386347486559,-0.4560585257909424,0.39766534765404177,25.205442160620372,-94.46,94.66,33.980909090909094,0.07362869223520807,33.87,34.13,3.3033693010652675e-05,4.72852090568326e-07,3.089727244694296e-05,3.475943150281083e-05,0.009733470362713707,0.0011548536097366596,0.004858477849586002,0.013799159389726362,2.8344516258757598e-05,4.057301060701663e-07,2.651136344159949e-05,2.9825283871799426e-05,0.041195239423531246,0.0005896783952250756,0.03853097913016968,0.04334735152144089,0.009733569427145749,0.0011548391035216892,0.004858693731915427,0.013799221611440822,0.14019219898247595,-0.0022433108671640967,False,True,False
0,4.74225803260972,0.033096945000247874,4.644146328090639,4.772122026151223,0.0655548576658033,0.0527585912721774,0.00027690339560782146,0.1515441084117049,0.059163177339648175,0.13178101796613612,5.5662710440884666e-08,0.924775366556848,-0.5236458356716251,0.05650940165071933,-0.5929386401898483,-0.45097509013924353,0.24697963800904948,30.013339641960016,-174.45,111.37,33.828558558558555,0.03124236188390908,33.77,33.89,3.278840721411808e-05,5.298607109816168e-07,3.0345535438961837e-05,3.751811654271645e-05,0.010747351199949214,0.0015237208429352497,0.006917959061587893,0.017246777130181398,2.813404910797082e-05,4.546462768317207e-07,2.6037946237285214e-05,3.219236989337081e-05,0.04088935151956072,0.0006607719834101249,0.03784292593141665,0.04678761751520604,0.010747439866104649,0.0015237081065855027,0.006918078856997962,0.017246847982628488,0.12669683257918554,-0.0008706563706563597,False,True,False
0,4.742919548883507,0.007850486101423729,4.694267535492339,4.75779235522341,0.050307423625979925,0.038403036722613984,0.0016475826854526984,0.13472170161335287,0.0327652878176491,0.06768021703552769,7.09129632792127e-08,0.32088916225509845,-0.5089062958208489,0.03849139476200861,-0.5809962594950439,-0.45926340171914026,-0.18915771622385533,20.788835935976845,-119.03,80.02,33.76854545454545,0.015494086687138493,33.73,33.79,3.253876797464273e-05,4.714529210114759e-07,3.089727244694296e-05,3.420769449482971e-05,0.012073738039390325,0.001306991552050061,0.006232579225267549,0.016552708865954828,2.791984649127123e-05,4.045295504967976e-07,2.651136344159949e-05,2.935186666748515e-05,0.04057803457911514,0.0005879335365781782,0.03853097913016968,0.04265929832268786,0.012073815349274757,0.0013069807632201313,0.006232731867689142,0.016552764441033988,0.14471452798191067,-0.0002360525663277973,False,True,False
0,4.7010400556412915,0.028926864644963513,4.639541646087155,4.738523790335697,0.05215456225550757,0.0381656725944066,0.0010376560139060919,0.11577879100261038,0.04160293110555777,0.11701398565700075,8.804241945215008e-08,0.7435687958683652,-0.5487769893557677,0.033525405100283005,-0.5881646237942669,-0.49125282462127284,-0.10651583710407225,14.136408014188353,-47.71,61.76,33.80513513513513,0.048745440157185814,33.75,33.91,3.208063598442283e-05,4.4152473289568876e-07,3.0345535438961837e-05,3.531116851079195e-05,0.01420388333864977,0.0013079093963488267,0.009672176878424529,0.016552708865954828,2.752674694768531e-05,3.788497085738999e-07,2.6037946237285214e-05,3.02987010761137e-05,0.040006713140164865,0.0005506110708597749,0.03784292593141665,0.04403540472019392,0.01420394702008971,0.0013079010436151377,0.009672271987843897,0.016552764441033988,0.14932126696832582,0.0013553878553878066,False,True,False
0,4.709591709511673,0.014432260646715746,4.6689895618518324,4.73815468441401,0.03190405445794412,0.023271525756334673,0.0011235823525796136,0.08189905638703772,0.020301434524018815,0.06296705277078089,7.11596867264408e-08,0.3728918810248738,-0.5211443817303913,0.020367479407007207,-0.560553518750561,-0.4816935770181018,0.20995475113122145,13.566178842022152,-37.68,58.52,34.06872727272727,0.09042315497590445,33.93,34.21,3.192272935204815e-05,2.7871229436914484e-07,2.9242061422999583e-05,3.3104220478867456e-05,0.014729850388630745,0.00046504767697941166,0.013113111212797849,0.016551372184738487,2.7391255372242425e-05,2.3914871270112756e-07,2.5091111828656657e-05,2.8405032258856593e-05,0.03980979293735432,0.0003475729974579591,0.03646681953391059,0.041283191925181796,0.01472991052292658,0.000465045453463365,0.01311318376346781,0.016551424060071603,0.13574660633484165,0.0027738430674210364,False,True,False
0,4.715339726800515,0.007836390807194418,4.699560423921078,4.739392420603978,0.0031647904682493818,0.0023597940948926594,0.0001414322829245885,0.009985464654792716,0.0027569075801770447,0.011053667562209898,1.592741927028407e-07,0.08206840215498995,-0.4869421434681505,0.00523017414399585,-0.49393760502691325,-0.4783170248996293,-0.06730356133408685,14.020546308891344,-45.87,43.23,34.255945945945946,0.0626008768218929,34.16,34.41,3.199949818913149e-05,1.681305783738355e-07,3.089727244694296e-05,3.3104220478867456e-05,0.014694139708486136,0.00037731573078601837,0.013799159389726362,0.01655204052534666,2.7457126770580268e-05,1.4426421868044528e-07,2.651136344159949e-05,2.8405032258856593e-05,0.039905528846230595,0.00020967015187473497,0.03853097913016968,0.041283191925181796,0.014694200246285033,0.0003773141458398581,0.013799221611440822,0.016552094234661714,0.1537591859807801,0.00186793611793613,False,True,False
0,4.720843248517271,0.03309660891649825,4.4851749368908855,4.749105654867537,0.06398461906490949,0.10098820791098431,0.0003759062278362159,0.35786751766538033,0.06153829881287159,0.17692976330998103,4.826548760661353e-08,1.361099639800777,-0.5429107133089812,0.1115121157720734,-0.8962741938129735,-0.4691754329970057,0.09401018099547508,20.899152294972474,-125.12,123.95,34.37436363636364,0.059254191548051664,34.25,34.45,3.056647989690903e-05,1.6118666834309478e-06,2.427642835116947e-05,4.027680158262207e-05,0.01698306058393162,0.002829239858572071,0.0007294903164596511,0.02205379275293821,2.6227527334940473e-05,1.3830600593377466e-06,2.083035698982817e-05,3.455945591494219e-05,0.03811845854720689,0.0020101062851597654,0.03027434074513332,0.050227883508971186,0.016983114005366295,0.0028292066275893693,0.0007308815363982862,0.022053827695099087,0.16289592760180996,-0.0015616617451479446,False,True,False
0,4.147159885865867,0.09277791533933338,4.035009373940087,4.468790415423953,0.05975047610865163,0.05978121620201203,0.0009181862346947858,0.20872931742433914,0.0341160106077879,0.07318613957594353,1.3519940750272852e-07,0.43496665067934925,-1.0782371823809689,0.043347453801802896,-1.140792429713896,-0.9101650779374197,-0.21242509892594677,10.386379554883536,-32.03,31.8,34.11054054054055,0.08331580487232443,33.99,34.25,2.540483963302917e-05,4.4311512803790967e-07,2.427642835116947e-05,2.6483376383093966e-05,0.01701130485169255,0.0007554095198582488,0.015855967239295568,0.018607511693699515,2.1798588786222343e-05,3.8021434500592195e-07,2.083035698982817e-05,2.2724025807085277e-05,0.03168154559230053,0.0005525944006873158,0.03027434074513332,0.03302655354014544,0.017011337908922296,0.0007554070220673574,0.01585600250627893,0.018607540453261257,0.13114754098360654,-0.0025249210249210048,False,True,False
0,4.112268601869283,0.07324790581962712,3.9875461307615905,4.265499003547027,0.0549266203153216,0.03960684326054775,0.0030566860173558514,0.14614502022096013,0.04507365093249423,0.16647710354617484,5.501979716271421e-08,1.5769032640516225,-1.1073203192864698,0.052571775693783615,-1.163041263718064,-1.0092076451237064,0.01634615384615393,13.492009792383715,-105.86,58.5,33.99072727272727,0.014316801633309015,33.97,34.03,2.9971677443734805e-05,3.1386708111369667e-06,2.3172954335207218e-05,3.9725064574640946e-05,0.00813805444588833,0.006312960620037718,-0.009593312686660312,0.017232741977409802,2.5717157882778138e-05,2.6931323061115396e-06,1.9883522581199616e-05,3.408603871062791e-05,0.03737669983859644,0.003914133835860871,0.02889823434762726,0.04953983031021816,0.008278556640184878,0.006127468339936958,5.727677650062896e-05,0.017232775852992627,0.13574660633484165,0.00015652683542591889,False,True,False
0,4.240715515419864,0.034866209622822296,4.176421386609974,4.296954510902717,0.018649704583979722,0.013904432145179097,0.00048390613969749943,0.05822685132143522,0.011808733604612182,0.033200568182494006,6.293769749809996e-08,0.1865656475020031,-0.9484474752165307,0.04164632970255182,-1.0081932029103353,-0.8885012728120858,0.04527416619559065,7.473128350103503,-18.21,16.73,33.97864864864865,0.023139359875112148,33.95,34.05,3.242640781974132e-05,2.61162371280537e-07,3.144900945492408e-05,3.3104220478867456e-05,0.0019890228855580006,0.001052962580488098,-0.0006486211028709228,0.003479698089647257,2.782343601011756e-05,2.24090024586405e-07,2.6984780645913764e-05,2.8405032258856593e-05,0.040437913900469365,0.0003256870616872735,0.03921903232892271,0.041283191925181796,0.002004996218025163,0.0010230776857870051,5.727677650062896e-05,0.00347996244726785,0.14019219898247595,0.00040049140049139336,False,True,False
0,4.280253272663478,0.030225594819591764,4.2177428396818915,4.323565537595189,0.046219663262754986,0.03083684352632014,0.005968929418579772,0.11178214393256065,0.03810152734310476,0.08267263076745282,6.584649747676252e-08,0.3841183454531689,-0.9402780513476189,0.025724243456896726,-1.00127356207165,-0.8900300390270319,-0.2541685520361991,8.204585421917509,-66.68,19.46,34.139272727272726,0.05716079189539319,34.03,34.23,3.225477017585579e-05,8.676403160138295e-07,2.2621217327226096e-05,3.8069853550697574e-05,0.003343127831443776,0.0018622199694721777,-0.0034028389197075562,0.014487880929087565,2.7676162558549206e-05,7.444776167192964e-07,1.941010537688534e-05,3.2665787097685084e-05,0.040223870201762255,0.0010820058944112532,0.02821018114887423,0.04747567071395907,0.0033664727012853897,0.0018201265799886305,0.0007160758080762169,0.014487942290602298,0.14027149321266968,0.0017229673376462434,False,True,False
0,4.211409698662015,0.07808122184005994,4.112027057587351,4.375933261953802,0.03112804739741078,0.01553828278513063,0.00439358128891226,0.06927346442293365,0.02331022738940118,0.07192135687452277,1.1142822065046687e-07,0.615885086648982,-0.9888740126450588,0.06474744877425694,-1.0575200608189839,-0.8717697773803117,0.46835407239818977,31.470449555026136,-158.36,147.96,34.29882882882883,0.03937555168418769,34.21,34.34,3.152702656578114e-05,2.313662888565965e-06,2.7586850399056214e-05,4.027680158262207e-05,0.005009452114905158,0.009892803862711139,-0.019223384106770047,0.015171255743583398,2.7051723123899382e-05,1.9852353577631783e-06,2.367086021571383e-05,3.455945591494219e-05,0.039316324919244125,0.0028852934066160183,0.0344026599376515,0.050227883508971186,0.010327496432876528,0.004026706264486806,5.826430712995015e-05,0.019223438669552742,0.08144796380090498,0.0010721305721306002,False,True,False
0,4.349894304297482,0.01937151942600307,4.3151821234732655,4.411551002155671,0.02939881013546396,0.01621855305033264,0.0036103953713161824,0.07084284109663523,0.02168058715719523,0.05935362673955938,1.2241325175743611e-07,0.3702072929026405,-0.8573017657037904,0.006203722265655279,-0.8711132866073326,-0.8505361655045043,-0.24985867721876753,17.829279944511082,-78.94,79.01,34.27109090909091,0.02214818544332748,34.21,34.31,3.345271876978435e-05,3.431345931660626e-07,3.144900945492408e-05,3.475943150281083e-05,0.008449543374470776,0.0009964109593433895,0.005544526026514519,0.01311444789401419,2.8704060752881094e-05,2.944261803184178e-07,2.6984780645913764e-05,2.9825283871799426e-05,0.04171779275919643,0.00042791194176847327,0.03921903232892271,0.04334735152144089,0.008449660017062221,0.0009963969154373673,0.005544697610687892,0.013114525354096988,0.14019219898247595,-0.0003289227509410946,False,True,False
0,4.361368252663199,0.014367039825167054,4.344026894361322,4.414440715792974,0.02052716190738621,0.015360069000860175,0.0013795085559789508,0.057629623458635294,0.015274600273783199,0.05005604859591368,7.964529658011088e-08,0.3413396557469962,-0.8376719438785415,0.007767218377021976,-0.8536716129308113,-0.8288168680284129,0.0034728506787330077,13.246317092384432,-31.04,56.65,34.171351351351355,0.0331247363347718,34.11,34.23,3.232404937029686e-05,9.442894897109505e-07,2.9242061422999583e-05,3.6966379534735316e-05,0.012480931835027576,0.00333370554856289,0.00485714116836966,0.01655204052534666,2.773560747900043e-05,8.102463380480847e-07,2.5091111828656657e-05,3.1718952689056526e-05,0.040310266021967675,0.0011775925749876713,0.03646681953391059,0.046099564316453005,0.012481014233553345,0.0033336693354851163,0.004857343617430122,0.016552094234661714,0.13122171945701358,-0.000909003159003163,False,True,False
0,4.370857535255326,0.01908823313527342,4.349344076617425,4.43731330589521,0.029255402497972347,0.017235827691775812,0.00644637011175776,0.07126507031298648,0.021162880214644974,0.0707572111969021,7.296094728381775e-08,0.42124051883832025,-0.8373219042957272,0.0053166202334986225,-0.8446059705597564,-0.8216232993289404,-0.009768230638778892,11.669909957626206,-36.06,51.44,34.15718181818181,0.011424407975090067,34.13,34.18,3.12149581223529e-05,3.703827137304032e-07,2.9793798430980708e-05,3.255248347088633e-05,0.016061512354711652,0.0006200665918858699,0.013799159389726362,0.019302916639142433,2.6783953211956918e-05,3.178063938509313e-07,2.5564529032970932e-05,2.7931615054542318e-05,0.03892715455795847,0.00046189218279472775,0.037154872732663616,0.04059513872642877,0.016061565122815306,0.0006200641036824058,0.013799221611440822,0.01930295957286131,0.1582815149802148,-0.00016234249261769427,False,True,False
0,4.386436057408045,0.02087670083065423,4.347789543201424,4.450869124556903,0.01888169232177043,0.016059595078706728,0.0008985729307574834,0.05449296240938199,0.017671177313796638,0.07426007479900638,1.389133816864785e-07,0.49727817437760613,-0.8124419789516094,0.01592060299672918,-0.8314911688764306,-0.7872660127387143,0.02539027149321271,11.277401554104308,-28.3,67.17,34.14765765765765,0.01293022920101486,34.13,34.18,3.1336040678403055e-05,3.016507483200203e-07,2.9793798430980708e-05,3.255248347088633e-05,0.016086565929867853,0.0006338447955420229,0.014486544247871222,0.019303584979750606,2.6887847937790592e-05,2.588310225401086e-07,2.5564529032970932e-05,2.7931615054542318e-05,0.039078152658137306,0.0003761787940368457,0.037154872732663616,0.04059513872642877,0.016086619027095125,0.0006338422326310868,0.014486601455806223,0.019303629458965365,0.16742081447963802,0.00024385749385745815,False,True,False
0,4.424198919962252,0.023665756858317944,4.385244144136037,4.463554837962786,0.041178715979849866,0.02225954752531805,0.0028245817043683853,0.08624968210147874,0.034824354409754656,0.08794419612803164,7.493229858823724e-08,0.5637323285529963,-0.7990527740519517,0.025053910749518557,-0.8710779670429154,-0.7760283867939566,-0.06220022624434383,9.691205575235863,-27.89,24.55,34.24436363636364,0.04329390220697314,34.16,34.33,3.109075488186847e-05,3.440187253273759e-07,2.9242061422999583e-05,3.2000746462905206e-05,0.01659141193454173,0.0006427129517588742,0.015174597446624253,0.0186148634403894,2.6677380787003815e-05,2.9518480874101613e-07,2.5091111828656657e-05,2.745819785022804e-05,0.038772264754166785,0.0004290145141044105,0.03646681953391059,0.03990708552767574,0.016591462613529916,0.0006427104972049578,0.015174652060621735,0.01861490796104515,0.15837104072398192,0.0012565426143407903,False,True,False
0,4.2907245752135035,0.05666135033962867,4.226066887435205,4.424037301679904,0.04314135010397295,0.040903503791445826,0.00048672473711273794,0.131321795182896,0.026758585582599657,0.08188583307544811,6.216457926200292e-08,0.5982624924267332,-0.926837402993966,0.015839991747486883,-0.9470459964282626,-0.8737225752566613,0.1278292820802714,16.03870978170592,-134.58,115.76,34.34783783783784,0.04061807491533715,34.29,34.43,3.0148531038371964e-05,9.583655597433655e-07,2.6483376383093966e-05,3.420769449482971e-05,0.008390341134544477,0.0037589218467441845,0.0014168751746045098,0.022056466115370897,2.5868906873936837e-05,8.223242911780774e-07,2.2724025807085277e-05,2.935186666748515e-05,0.03759724817909353,0.0011951463820942757,0.03302655354014544,0.04265929832268786,0.008390449802989353,0.0037588893783687114,0.0014175690278530756,0.022056506420983987,0.1492368569813454,-0.000984731484731459,False,True,False
0,4.192344108279429,0.012165053931282343,4.171759470703605,4.2238369746470745,0.004947497720567642,0.0039861573275019775,0.0001851622267992387,0.013819881511556465,0.0037769814044344738,0.016530810897191092,1.6071208655543678e-07,0.12427906910368045,-0.9811420215215976,0.011030211087764542,-0.990787130319593,-0.9481703065415124,0.03358031674208156,9.350639823176287,-21.24,17.11,34.31684684684685,0.018780162744089834,34.27,34.37,3.062390049049982e-05,4.3504158925659995e-07,2.9242061422999583e-05,3.144900945492408e-05,0.005561758376730249,0.001109351971311159,0.003477693067822743,0.007605343919732751,2.627679699873789e-05,3.7328685581545297e-07,2.5091111828656657e-05,2.6984780645913764e-05,0.038190065893683456,0.000542526154215934,0.03646681953391059,0.03921903232892271,0.00556191145991962,0.0011093184785758389,0.003477931363298959,0.007605449031029087,0.14027149321266968,0.00039294489294487337,False,True,False
0,4.166671959571216,0.00850150399522741,4.146366391612159,4.184740054447449,0.0021432366606409753,0.002046777620867411,2.5408731069500897e-05,0.007163742051058497,0.0015048176649333767,0.0072765540830040595,1.7126497694336384e-07,0.049226752458930614,-1.0023885524869078,0.006175340607103062,-1.0127495233149117,-0.9894018953146283,7.348784624085965e-05,10.224521719623318,-26.31,17.96,34.315090909090905,0.0173335044152289,34.29,34.37,3.037986296773894e-05,2.8978162409984e-07,2.9793798430980708e-05,3.144900945492408e-05,0.006922780688315378,0.00040551434502206994,0.006229237522226691,0.007606012260340924,2.6067400927598883e-05,2.4864673632277e-07,2.5564529032970932e-05,2.6984780645913764e-05,0.03788573467115807,0.00036137719695714874,0.037154872732663616,0.03921903232892271,0.006922896895586965,0.00040550647279638497,0.006229365853317836,0.007606121219011214,0.14019219898247595,-0.00017708450735973453,False,True,False
0,4.165460044584331,0.06811913417553109,4.040515127505668,4.342364351815121,0.04203009485982159,0.06530334947067688,7.96458075607642e-05,0.22525480469914555,0.03428114581628648,0.15102141947566464,7.254616907204081e-08,1.1346435693101982,-1.04357662289908,0.042279613489478216,-1.1387706378562505,-1.008081005623401,-0.06953619909502265,17.931903483638038,-62.72,102.0,34.313963963963964,0.02476358320669757,34.23,34.34,2.958845739520493e-05,2.686736786192072e-06,6.069107087792367e-06,4.027680158262207e-05,0.008399112719245344,0.006280706660933973,-0.019258137818394958,0.022740509270474895,2.5388336430912793e-05,2.305350918368866e-06,5.2075892474570424e-06,3.455945591494219e-05,0.036898798634937655,0.0033505416769326712,0.00756858518628333,0.050227883508971186,0.009261643489102706,0.0049192086210146715,5.5301715241986593e-05,0.02274054069379526,0.16289592760180996,-0.00041049491049490746,False,True,False
0,3.9407989472279272,0.050903787570048646,3.8571377180333237,4.042259711634659,0.01043487153599034,0.010168010458928201,0.00015952226353959932,0.029011470036772357,0.006842002165668839,0.023539293675423224,1.2195311283047516e-07,0.13827593060275822,-1.2238336609990121,0.050511551697477675,-1.312428681236884,-1.14063315401407,-0.09772187676653474,8.458484993968598,-23.66,16.2,34.113454545454545,0.05139229163697347,34.05,34.23,2.663424684177355e-05,2.8376078218267565e-07,2.5931639375112838e-05,2.7586850399056214e-05,0.01616924863364993,0.00044808424902488336,0.014481865863614022,0.016546025459873118,2.285348000306726e-05,2.434805609406395e-07,2.2250608602771e-05,2.367086021571383e-05,0.03321469916059542,0.0003538688016884501,0.03233850034139241,0.0344026599376515,0.01616928677078817,0.00044808257903637704,0.014481909677609078,0.016546063807972206,0.12662521198417184,-0.00154263688208642,False,True,False
0,6.279443131391017,0.12505455071645072,6.012988887688864,6.538386562010944,1.0145812499762648,0.25615893909593423,0.6057035643747173,1.5384358838544694,0.7460316493443967,1.267772726291443,6.220210124752157e-08,5.216511962977307,-0.02562020747876081,0.29077352280413726,-0.48812615107971424,0.2836502926510442,0.2571097285067869,52.15901305595746,-169.77,170.56,33.185045045045044,0.017574458422996535,33.16,33.21,3.0568976444456455e-05,5.32833502294136e-06,1.0483003151641362e-05,7.007060001360278e-05,-0.007321403794914176,0.008162153288424309,-0.043313934491032324,0.0193456904380654,2.6229669494236016e-05,4.571970764551368e-06,8.994926881971256e-06,6.012398494791312e-05,0.03812157191009717,0.006644792543421388,0.01307301077630757,0.0873827562416348,0.007616875577531651,0.007886924696697445,5.135159272470183e-05,0.04331394974413414,0.19457013574660637,-0.000361881361881388,False,False,True
0,6.354916551141341,0.11694843474332287,6.102397966386646,6.643091984640952,0.6683358312612528,0.12913164125622253,0.3656361732899126,0.9778992921479618,0.5424880581493955,0.9123992777082471,8.084831293331263e-08,4.004386875295911,0.39199093805051527,0.07417795010603008,0.19650380845973903,0.48090053664780086,-0.0714019219898247,83.34749855818593,-268.32,393.2,33.15381818181818,0.008880637445279714,33.13,33.18,3.110198934583188e-05,5.9118033453732735e-06,4.965633071830118e-06,7.007060001360278e-05,-0.005450405379209527,0.0056088648382848,-0.034317780680413745,0.016534663669534204,2.6687020503833742e-05,5.0726149809369905e-06,4.260754838828489e-06,6.012398494791312e-05,0.03878627488717307,0.00737241682784147,0.00619247878877727,0.0873827562416348,0.0061714364874834535,0.004803322529435555,4.048875580216875e-05,0.03431790488377068,0.07687959299039004,-6.491896400152682e-05,False,False,True
0,6.4115333305714,0.13573123797777473,6.178670295124844,6.696654022666513,1.1122063330752907,0.15216870342252742,0.8186487187322677,1.4827498385405518,0.8818546552631239,1.3616250766349616,7.183986028280742e-08,5.344895080096908,0.0010720485488328057,0.11213513580273828,-0.16953266965518676,0.18301987857764762,0.12188914027149321,68.18718362984137,-256.79,247.57,33.12513513513513,0.01482411210677722,33.09,33.15,3.118375127801008e-05,5.823861962410805e-06,5.517370079811242e-06,7.007060001360278e-05,-0.005788884552103076,0.008582874078022969,-0.04399530428370364,0.028965068408444393,2.675717622076267e-05,4.997156994498917e-06,4.7341720431427655e-06,6.012398494791312e-05,0.03888823752182991,0.007262748001979129,0.006880531987530299,0.0873827562416348,0.00701089537329374,0.007616317550284994,4.048875580216875e-05,0.04399532590799781,0.1719457013574661,-0.00025798525798526923,False,False,True
0,6.489534728970569,0.2206407896474683,5.991802587203922,7.086354237818685,1.658366652850861,0.7326597934949741,0.46326655831436486,3.0023707773033443,1.3066615675596174,2.2015732769865304,2.7598595409017435e-08,12.302784254750456,-0.4715771594095145,0.688587071425689,-1.477059463833754,0.3460705525554183,0.02015828151498007,55.3590150209754,-254.14,237.07,33.100545454545454,0.013736468814056175,33.07,33.13,3.107308017151999e-05,8.086138632206731e-06,0.0,7.007060001360278e-05,-0.005885059701139105,0.008891502891211744,-0.049486363061564446,0.022790634816087747,2.6662215025347086e-05,6.938300475736702e-06,0.0,6.012398494791312e-05,0.03875022320028082,0.01008395933382927,0.0,0.0873827562416348,0.007109287175394803,0.007945727375380832,2.073814321574497e-05,0.04948639723905401,0.18541548897682306,-4.327930933436709e-05,False,False,True
0,6.671043075575328,0.19378384843848817,6.349137835230589,6.927419760534557,0.814154173516458,0.4025683758616745,0.300547005157224,1.7802440444975096,0.5514784928401723,1.021185267587109,7.659599887688273e-08,6.078286719669771,0.5431255781414362,0.29111631746763456,-0.43839863409244917,0.7697267870958145,1.2311651583710421,89.98474082175387,-284.33,600.91,33.09918918918919,0.019027976299750796,33.07,33.13,3.1241171871600876e-05,4.2526124515413855e-06,1.2138214175584734e-05,7.007060001360278e-05,-0.00405000182206889,0.005302360451242592,-0.034317780680413745,0.023437919237742327,2.6806445884560082e-05,3.648948445940899e-06,1.0415178494914085e-05,6.012398494791312e-05,0.03895984486830646,0.00530329406585704,0.01513717037256666,0.0873827562416348,0.005007705975532847,0.004408211187918534,5.2339123354023015e-05,0.03431790488377068,0.09502262443438915,-0.00043699543699541747,False,False,True
0,6.540157861217253,0.1682582052988386,6.358442453843877,7.1207843218827565,0.7376863238943155,0.5732750627748997,0.12257496038339247,2.3495684823698904,0.7124236582144801,1.5490222332944563,5.6327650099774473e-08,8.926608256918332,0.4971884603141243,0.4422661467012138,-0.6740566653300302,0.9583746487931009,-1.3780825791855214,75.36431667920097,-351.94,460.64,33.04963636363637,0.013540782621214572,33.03,33.07,3.119935470018149e-05,5.3190742715792655e-06,1.655211023943373e-06,7.007060001360278e-05,-0.005400473630504698,0.005419001595201153,-0.04328319082305644,0.026192805395187133,2.6770564716359798e-05,4.564024589188337e-06,1.4202516129428298e-06,6.012398494791312e-05,0.03890769603989419,0.006633243762923845,0.00206415959625909,0.0873827562416348,0.005879763690940104,0.004894352958061233,4.6413939578095886e-05,0.04328324709200329,0.14027149321266968,-0.0003166602799630333,False,False,True
0,6.653198197130838,0.21622146758661212,6.258478486477866,7.114202527278376,1.9368030999005843,0.5694110174669141,0.9554144231384416,2.8040851167844414,1.3726800113352977,2.214108906072572,6.025039311907676e-08,9.461957379412077,-0.5956712515738682,0.47010169428304555,-1.1979174992327521,0.049706031374967985,0.16514980214810543,62.50590650183486,-238.85,238.68,33.005585585585585,0.018668626315762788,32.97,33.05,3.169242284079811e-05,7.16813230697863e-06,2.758685039905621e-06,7.007060001360278e-05,-0.005133683830669866,0.00862475008667048,-0.0446780107575913,0.022749866038989295,2.7193641177228887e-05,6.15060637194155e-06,2.3670860215713828e-06,6.012398494791312e-05,0.03952258521072552,0.00893914363466138,0.0034402659937651497,0.0873827562416348,0.006960644314356903,0.007229610357903295,2.073814321574497e-05,0.04467803810837257,0.17637083097795364,-0.00027053352053350475,False,False,True
0,6.722063572525204,0.22929472188776034,6.213853122498102,7.287559341984978,1.5960350504480045,0.3876586701887742,0.8362228838725931,2.2541444575358254,1.2074354395210258,1.983764293940067,9.0314159706395e-08,9.332014948665169,-0.190270290449718,0.4394059297730517,-0.7039823006139738,0.6859717270319141,-0.272958144796379,67.93067882853649,-308.03,278.18,33.01018181818182,0.01791835808038505,32.99,33.05,3.0749352004757977e-05,4.947147040961664e-06,6.069107087792367e-06,7.007060001360278e-05,-0.004772119432525109,0.011061027905080874,-0.04534133535384199,0.018662315623569566,2.6384440503338762e-05,4.244892924680959e-06,5.2075892474570424e-06,6.012398494791312e-05,0.03834651237892029,0.00616942546357469,0.00756858518628333,0.0873827562416348,0.009040559371715691,0.00795755387576483,4.6413939578095886e-05,0.045341399612234386,0.06787330316742082,-3.6066091111959086e-05,False,False,True
0,6.658407003428244,0.19666665460037416,6.1702484798800885,7.159237991987214,1.061133263295521,0.5945256709257162,0.14736429375308585,1.9463902080269049,0.8524662007839934,1.5238307740616621,4.298535927205194e-08,8.11423838253582,0.2849716940386979,0.579218177734824,-0.610358079236643,1.0984413699543225,0.36052006783493346,66.25844293901139,-231.84,229.98,32.98828828828829,0.012422404530369654,32.97,33.0,3.091161137483399e-05,5.266715265149338e-06,-6.069107087792367e-06,7.007060001360278e-05,-0.0030630709878555094,0.008803180370851904,-0.06050791271316819,0.043415522263474365,2.652366693956472e-05,4.519098013507959e-06,-5.2075892474570424e-06,6.012398494791312e-05,0.03854886073872484,0.006567948556445917,-0.00756858518628333,0.0873827562416348,0.004867908232251672,0.007947790547043261,2.2713204474387347e-05,0.060507928964662956,0.12662521198417184,-0.0003184450684450799,False,False,True
0,6.736024114229799,0.23602554445091933,6.10270071025968,7.3280649990394915,2.0340232246767314,0.5634119963682689,0.7832870809355861,2.7067886336948783,1.6648516976183867,3.2050624016506584,5.1057924110864406e-08,15.009762075583424,-0.6153315235081552,0.47971686619757853,-1.128438241342311,0.6624612978576023,-0.010288461538461826,89.03973256402095,-297.11,391.5,32.958,0.016073226927197717,32.93,32.99,3.072875548749171e-05,8.838125952952394e-06,-6.620844095773492e-06,7.007060001360278e-05,-0.007000533870613338,0.012492068647366827,-0.052951357657831946,0.06334901480906709,2.636676768915056e-05,7.583542194014506e-06,-5.681006451771319e-06,6.012398494791312e-05,0.038320827135075425,0.011021738155942424,-0.00825663838503636,0.0873827562416348,0.01072713681378634,0.00948233877422321,1.2837898181175457e-05,0.06334903643480452,0.16289592760180996,-0.00019619953564907274,False,False,True
0,6.606101770184454,0.2908259770500295,5.727950123422228,7.128552450749785,2.156207846178111,0.3099684173104955,1.518589097680331,2.635472880879816,1.570139560764334,2.344687977096799,3.4991060715583444e-08,13.482016707914749,-0.8592673747258244,0.23068660620848813,-1.1447270921224064,-0.2925355110996909,0.07299604296212504,51.478132729116815,-234.76,203.3,32.9636936936937,0.013206604954127529,32.95,32.99,2.8568617722081448e-05,6.662628461442673e-06,0.0,7.007060001360278e-05,-0.00769353875086087,0.010076114141512885,-0.047452278792673074,0.01861419509978123,2.451326435868482e-05,5.7168594710413745e-06,0.0,6.012398494791312e-05,0.03562698989425615,0.008308746302469245,0.0,0.0873827562416348,0.009120862802782606,0.008803567036486805,2.66633269916721e-05,0.04745228561487951,0.18993781797625775,-1.4391014390998682e-05,False,False,True
0,6.685597128299498,0.1646481202352944,6.520927487969105,7.213137088071974,1.0053254035316208,0.7623540184007697,0.07420649681801007,2.585206847352561,0.8683595318640752,1.9087589828161897,4.798171460151934e-08,9.300738299913512,0.36609811321744606,0.6579421402212126,-1.1194585993856174,1.1538787239081567,-0.16486425339366512,9.905355435756483,-34.44,49.74,32.934363636363635,0.018450393333979274,32.89,32.97,3.1394709545767564e-05,2.4097474071218007e-07,2.9793798430980708e-05,3.2000746462905206e-05,0.00012364711854576725,0.0008311749977048966,-0.0027147857209545265,0.0014142018121718245,2.6938188681235775e-05,2.0676805508435562e-07,2.5564529032970932e-05,2.745819785022804e-05,0.03915131668605901,0.0003005117270860524,0.037154872732663616,0.03990708552767574,0.0007323863810274429,0.00041336891476987666,5.431418461266541e-05,0.002715090975369846,0.14027149321266968,-0.0004553344002885774,False,False,True
0,6.94351092446852,0.1662939462957573,6.596820840638156,7.487214617297139,3.252947704798343,0.2889104920947616,2.6795222617907255,3.800864530037778,2.4848746100340224,3.6931040120519434,4.9002949253917905e-08,14.599096301830429,-1.6384780270977002,0.2847790598362355,-1.957756990675738,-0.9930747331949374,0.5858201357466067,25.843809102694294,-79.52,102.31,32.88981981981981,0.021319303330846365,32.84,32.91,3.097903437912116e-05,4.5691989969579807e-07,2.869032441501846e-05,3.255248347088633e-05,-0.0015300520997760401,0.0008494234247211726,-0.004779613657821789,0.0014135334715636532,2.6581519158528415e-05,3.920595109272527e-07,2.461769462434238e-05,2.7931615054542318e-05,0.03863294176482652,0.0005698098804537045,0.03577876633515756,0.04059513872642877,0.0015745376813420125,0.0007648024518994818,5.33266539833442e-05,0.00477978090964449,0.1085972850678733,-0.0004928044928044618,False,False,True
0,6.935310714491336,0.12919730475648478,6.559420068410384,7.231840335622793,1.9745917890192382,0.26890678579054794,1.3590585259944838,2.662965470409261,1.4283484629501415,2.282849858898845,7.013049696524831e-08,7.503408754189579,-0.3676867094233133,0.263456281371357,-0.9715473048482961,0.2426853065065585,-1.388094968908988,37.08454299001548,-138.94,163.7,32.83436363636363,0.010625162511635974,32.81,32.87,3.08361761454942e-05,5.285134448618344e-07,2.813858740703734e-05,3.3104220478867456e-05,-0.0026044602329959618,0.0009556120846006767,-0.005470340219007504,0.0014128651309554818,2.6458939841573727e-05,4.534902569333496e-07,2.4144277420028106e-05,2.8405032258856593e-05,0.03845478792849985,0.0006590918518440403,0.03509071313640453,0.041283191925181796,0.0026142958221144473,0.000929225563950002,5.135159272470183e-05,0.005470465870282389,0.08140192198982475,-3.7508734756448325e-05,False,False,True
0,6.867186062633686,0.06674170021436915,6.672057392409396,7.0510615840340245,0.5715458984939149,0.27021412749647195,0.0706330528485967,1.3653506901220251,0.34731208671213665,0.6783632429202546,6.725610823821171e-08,3.867615673294658,0.9705410176820276,0.28389477698797255,0.27097522462465656,1.5091489867210126,0.6107692307692308,41.58145645969459,-138.55,165.09,32.82135135135135,0.014301079837580987,32.79,32.84,3.035926645047268e-05,4.2072846440699125e-07,2.869032441501846e-05,3.2000746462905206e-05,-0.004138244269511973,0.0009286598815592218,-0.0068431049134727055,-0.0013380109828402954,2.604972811341068e-05,3.6100549811552725e-07,2.461769462434238e-05,2.745819785022804e-05,0.03786004942731322,0.0005246767237908105,0.03577876633515756,0.03990708552767574,0.004138451558250303,0.000928597846126755,0.0013386525347465852,0.006843226019256596,0.11312217194570137,-0.00028448578448577345,False,False,True
0,6.9397948797885975,0.042554294617758864,6.842428062407552,7.035703810534134,0.11643882083941694,0.059899335613838124,0.03660658096772637,0.26601876372235134,0.08670584290374282,0.2298937228812407,1.0416377249633513e-07,1.5158642699213951,1.494164150595468,0.05133124884716297,1.4223829835760868,1.5777694471912633,0.13619559072922546,31.358668290881866,-104.68,108.22,32.75927272727273,0.018706280695207866,32.73,32.79,3.0364883682454386e-05,3.4533066123068503e-07,2.869032441501846e-05,3.144900945492408e-05,-0.0036471044691967743,0.0006392289892756465,-0.005468335197182989,-0.0006506261246954367,2.6054547971825645e-05,2.9631051359423125e-07,2.461769462434238e-05,2.6984780645913764e-05,0.03786705449381636,0.0004306505865116818,0.03577876633515756,0.03921903232892271,0.003647333191048041,0.0006391762664940162,0.0006518986485431575,0.005468476117193888,0.07687959299039004,-0.0004676870364943967,False,False,True
0,6.9188963175379445,0.08003943722490901,6.776816500784224,7.122993787326367,0.2992155978138819,0.10299801248914855,0.054812011381636404,0.4812226961766332,0.26024545862779225,0.48148824006810775,1.748728823969259e-07,1.8671177589286465,1.2916241097509622,0.13963934120876131,1.1549977537451768,1.5736720638090897,0.2641628959276016,37.5922756620514,-98.65,181.18,32.71666666666666,0.015095654602525599,32.68,32.75,3.061828325851811e-05,4.4133169498169933e-07,2.9242061422999583e-05,3.3104220478867456e-05,-0.004440705053406246,0.00074413281359106,-0.007532494793442079,3.6090392841250674e-05,2.6271977140322926e-05,3.7868407264909284e-07,2.5091111828656657e-05,2.8405032258856593e-05,0.038183060827180315,0.0005503703395833176,0.03646681953391059,0.041283191925181796,0.004440996981487143,0.0007434835352965505,5.33266539833442e-05,0.007532597097203703,0.07692307692307693,-0.0002992277992277675,False,False,True
0,7.074268723856988,0.047810890797947654,6.961195604497351,7.183006120650311,0.19482752637854822,0.1409355343393707,0.03908765511108509,0.5151209233967888,0.12538090120899914,0.3315560032301597,1.1156668744405351e-07,2.4389973542643615,1.5428161964941918,0.12344203223638153,1.2700158694154389,1.6601215183683735,-0.5002375565610864,30.70406821639298,-109.21,116.22,32.67909090909091,0.023009589327080582,32.65,32.71,3.067632798899577e-05,3.99195319714003e-07,2.9242061422999583e-05,3.2000746462905206e-05,-0.0037159995288410523,0.0007163422818434775,-0.006842436572864535,-0.0013386793234484667,2.6321782343944227e-05,3.4252901201220977e-07,2.5091111828656657e-05,2.745819785022804e-05,0.03825544651437945,0.0004978234424794201,0.03646681953391059,0.03990708552767574,0.003716227904111933,0.0007162981264378777,0.0013392982583669097,0.006842562054688021,0.0995475113122172,-0.0004764330635890548,False,False,True
0,7.077396265836696,0.0566183750666754,6.937867073659765,7.218765973391284,0.3008121840929571,0.100246896219158,0.13643091026891768,0.5318894102380214,0.2573739728173305,0.48374736100274746,1.3701039236480028e-07,2.152340669009382,1.4394380217019218,0.08528308401513433,1.3181692558067637,1.596046904047277,0.42354437535330697,29.031677073258336,-87.28,93.48,32.637567567567565,0.013896776357139774,32.61,32.66,3.053942268131453e-05,4.887594757590053e-07,2.869032441501846e-05,3.2000746462905206e-05,-0.003562651951632372,0.0007561186711577746,-0.005468335197182989,-0.0006506261246954367,2.6204310927162884e-05,4.193794167308347e-07,2.461769462434238e-05,2.745819785022804e-05,0.03808471637753212,0.0006095159756409576,0.03577876633515756,0.03990708552767574,0.003562892048432645,0.0007560583694847757,0.0006518986485431575,0.005468476117193888,0.09949123798756358,-0.0003044928044927667,False,False,True
0,7.164883863931791,0.04800500799310595,7.051638906284454,7.2837361024349185,0.36787434607625036,0.07672320494508922,0.23462668447658058,0.50460802636839,0.27211672730082304,0.5500396852326582,1.2069969201888853e-07,2.110041202300774,1.4545760864449444,0.057001426589800154,1.353754075682293,1.545724669682524,0.10251131221719538,44.134841811369874,-299.87,248.28,32.6145045045045,0.013667395757704337,32.59,32.63,3.076745197447682e-05,4.7521694062964767e-07,2.9242061422999583e-05,3.3104220478867456e-05,-0.002820797315837911,0.0010864145111883707,-0.006155051714719676,0.0027903082096778845,2.6399971158231425e-05,4.077592625132886e-07,2.5091111828656657e-05,2.8405032258856593e-05,0.03836908425987485,0.0005926275224826767,0.03646681953391059,0.041283191925181796,0.00289501399756241,0.0008702030635123828,5.5301715241986593e-05,0.0061551863582437385,0.09502262443438915,-0.0001549666549666667,False,False,True
0,7.187723693740706,0.03832494132853978,7.092862879568605,7.289051076724546,0.26994574601391874,0.12486865734405757,0.09607748096721042,0.4801744833778517,0.19157909570126863,0.3815468577902212,1.670908842399399e-07,1.6970318103436446,1.5743429960612763,0.11752225557296334,1.4116819439112513,1.724603291513432,-0.2588694177501413,27.6379115108276,-108.26,100.58,32.60781818181818,0.012516544514047618,32.57,32.63,3.0745607183436835e-05,3.404491275547919e-07,2.9793798430980708e-05,3.2000746462905206e-05,-0.0026200118708639337,0.0007140478062919524,-0.004779613657821789,-0.0006506261246954367,2.638122726439545e-05,2.921219201299945e-07,2.5564529032970932e-05,2.745819785022804e-05,0.03834184233458486,0.00042456298533225645,0.037154872732663616,0.03990708552767574,0.002620355869624417,0.0007139347796613635,0.0006518986485431575,0.00477978090964449,0.10401356698699829,9.882108964677394e-05,False,False,True
0,7.130636109093953,0.033793482345541435,7.043325734461449,7.209604149728756,0.21502747755579685,0.055679572704456864,0.10320615676854576,0.3394009656138008,0.17178989638962433,0.3256637301291032,1.3854420632952724e-07,1.2086065168417344,1.5754357702329294,0.0561508024687536,1.4945088835694533,1.6597757678168632,0.11621606334841636,22.44421975827417,-73.37,63.71,32.58513513513514,0.01482411210677783,32.55,32.61,3.0768076111363666e-05,3.406140411103988e-07,2.9793798430980708e-05,3.2000746462905206e-05,-0.0024028275917757098,0.0006130446166859149,-0.005465661834750304,0.000724811932202452,2.6400506698055307e-05,2.922634239865777e-07,2.5564529032970932e-05,2.745819785022804e-05,0.038369862600597424,0.0004247686436401309,0.037154872732663616,0.03990708552767574,0.002406475136799889,0.0005999228378933609,0.0006512774675035459,0.00546582448421548,0.11312217194570137,-0.00025236925236926037,False,False,True
0,7.133851289701422,0.06596828994122529,6.926559219877248,7.225631293366817,0.21282806946824398,0.1001062912742396,0.05347613532681651,0.406794120679408,0.16033864151165483,0.36444376863706185,1.6040133488104402e-07,1.899540514582978,1.5803622535632944,0.1037782040220346,1.423146978283728,1.702324068296566,0.34875070661390645,32.597790974790314,-90.83,92.84,32.56636363636364,0.012170597199679974,32.53,32.59,3.091659882801349e-05,3.5400177433846954e-07,2.9242061422999583e-05,3.255248347088633e-05,-0.0032068952760413226,0.000740527026609055,-0.006155051714719676,0.0007261486134187946,2.652794641711784e-05,3.037507506390541e-07,2.5091111828656657e-05,2.7931615054542318e-05,0.03855508042865708,0.0004414640484043193,0.03646681953391059,0.04059513872642877,0.003208811105312143,0.0007333052827499356,0.0006518986485431575,0.0061551863582437385,0.11305822498586772,4.904988391226768e-05,False,False,True
0,4.642142121394038,0.03994247628884064,4.585921929199145,4.737197525477504,0.04022377676401375,0.03540767269163721,0.002092355413563187,0.13540123997078143,0.025117588642989828,0.08058483519831242,1.583846243602416e-07,0.5262565916745154,-0.5929812756375297,0.011390581820684701,-0.6138517342650454,-0.5781947548325846,-0.04768099547511313,5.896607711918107,-14.34,16.72,33.40783783783784,0.013578419067529823,33.39,33.45,3.319222377991422e-05,2.0212945002470847e-07,3.3104220478867456e-05,3.365595748684858e-05,0.0032158371864202716,0.0003349291963753873,0.0027923132315023982,0.0034810347708635996,2.8480543374024366e-05,1.7343690518500496e-07,2.8405032258856593e-05,2.8878449463170872e-05,0.04139293796706436,0.00025206903405046037,0.041283191925181796,0.04197124512393483,0.003216138026628962,0.0003348962238695454,0.0027926539202154112,0.0034813172455665613,0.12217194570135748,-0.00015619515619515653,True,False,False
0,4.626746949943374,0.06279910722254985,4.539709589770169,4.803826908110956,0.057102009241641036,0.05144564541745449,0.0030376499098215357,0.20936826690687826,0.04533013124144227,0.11961029522604237,1.5735190850296732e-07,0.6755813021047805,-0.6242673494677025,0.01549533482798353,-0.6579893798926704,-0.6097464866182072,0.034013566986998374,6.186306459851504,-18.47,12.68,33.407090909090904,0.014034391215177069,33.37,33.43,3.314915833472112e-05,1.5549680710504756e-07,3.255248347088633e-05,3.365595748684858e-05,0.0033909116821413897,0.00023617310971353926,0.002791644890894227,0.0041684196290084595,2.8443591126176307e-05,1.334238280822138e-07,2.7931615054542318e-05,2.8878449463170872e-05,0.04133923245720693,0.0001939149884398772,0.04059513872642877,0.04197124512393483,0.0033911946092691587,0.00023615001602293953,0.002791974397474933,0.0041686478549733804,0.11305822498586772,-0.00018177309920429285,True,False,False
0,4.642333466173642,0.07307549323652476,4.528700648968582,4.822708011949501,0.08659304306526071,0.06692352533202554,0.006611216514616196,0.2728292520124504,0.06966144838945816,0.15793351734863406,9.562861436052117e-08,0.7771420894351302,-0.6390964228815634,0.015697816903044087,-0.6617130900960164,-0.6213546436410844,0.08179298642533937,6.292716885759264,-15.03,12.26,33.39432432432432,0.013592887285877396,33.37,33.43,3.31179514903783e-05,1.3574871547557404e-07,3.255248347088633e-05,3.531116851079195e-05,0.003685865013925315,0.00037130259359879436,0.0007274852946351372,0.00416908796961663,2.841681413498206e-05,1.1647900438083218e-07,2.7931615054542318e-05,3.02987010761137e-05,0.04130031542107837,0.00016928778849067087,0.04059513872642877,0.04403540472019392,0.0036861267311427076,0.0003712688466523162,0.0007287487174671731,0.00416932382847865,0.12217194570135748,-0.0002618462618462579,True,False,False
0,4.644258179468032,0.027770143790632376,4.597553813436903,4.718688086615989,0.043451318476778904,0.032028079926973506,0.007342367013597833,0.13602963339439203,0.029064797117876105,0.10917380760526288,1.5180338119868964e-07,0.8565263765575251,-0.5940932528141363,0.016305784813653575,-0.6212996765720653,-0.5738292429467831,-0.053139140271493225,5.63363775968432,-13.28,10.47,33.37681818181818,0.017290386477860388,33.34,33.41,3.310858943707545e-05,4.892991347818857e-08,3.3104220478867456e-05,3.365595748684858e-05,0.0036438232742852855,0.00029299217830520215,0.003480366430255428,0.00416908796961663,2.840878103762379e-05,4.19842470436135e-08,2.8405032258856593e-05,2.8878449463170872e-05,0.0412886403102398,6.101889667790575e-05,0.041283191925181796,0.04197124512393483,0.0036440859675903213,0.00029297296895123106,0.0034806397722430354,0.00416932382847865,0.12669683257918554,-0.0002943443860875097,True,False,False
0,4.582367253168516,0.04738217290429446,4.516174903674956,4.68760971533861,0.015506816194150915,0.019623233412042765,0.0006505014119719719,0.07638847034837211,0.01387129392622235,0.06109053305024659,1.434721690063423e-07,0.5052291709578948,-0.6244057382319501,0.030005967926482184,-0.6604882960491669,-0.5885503652707835,-0.05887507066139065,7.103653107955238,-17.44,12.79,33.34576576576577,0.021300855704088482,33.31,33.39,3.3107961068752074e-05,4.530064757148071e-08,3.3104220478867456e-05,3.365595748684858e-05,0.003778916078125273,0.0003458785563531897,0.003480366430255428,0.004856472827761489,2.840824186702144e-05,3.887016026963811e-08,2.8405032258856593e-05,2.8878449463170872e-05,0.04128785669263097,5.6492957724901643e-05,0.041283191925181796,0.04197124512393483,0.003779169942816972,0.0003458560333637468,0.0034806397722430354,0.004856668720641425,0.11758055398530243,-0.0001769041769041731,True,False,False
0,4.5134159666456,0.02991494480426077,4.465121172110214,4.568034456896055,0.02067587422600229,0.015426860501086607,0.0008495299521132265,0.05833786736907929,0.01352048818605274,0.040659805146667456,1.2805872784404926e-07,0.26715633354010726,-0.6947291433892019,0.0164803403851851,-0.7175700468947981,-0.6601893326728391,0.04602375565610855,6.807157695786403,-15.72,10.15,33.25872727272727,0.031069885443699086,33.21,33.33,3.311046184773602e-05,5.838231978748339e-08,3.3104220478867456e-05,3.365595748684858e-05,0.004163757145087151,0.00010850077992807465,0.003480366430255428,0.004856472827761489,2.8410387657095444e-05,5.009487167864272e-08,2.8405032258856593e-05,2.8878449463170872e-05,0.04129097533240751,7.28066837992043e-05,0.041283191925181796,0.04197124512393483,0.004163985880993731,0.00010849434333673739,0.0034806397722430354,0.004856668720641425,0.12217194570135748,-0.0009254558979329723,True,False,False
0,4.43740898132427,0.015776088588776212,4.414240156177764,4.469256012933045,0.005653872013660915,0.008156817549624282,6.579675614286499e-05,0.036652858610453254,0.007575031967397379,0.03465218599508248,1.378745551547378e-07,0.2741430773739395,-0.7510880613678976,0.014114003776032344,-0.7643043095477604,-0.7183204734984063,0.02466930469191636,7.256586804692706,-18.29,15.34,33.16243243243243,0.02158350448485294,33.13,33.21,3.311982390103887e-05,1.0873125916066809e-07,3.255248347088633e-05,3.420769449482971e-05,0.004256391031694315,0.00025632043568110213,0.003480366430255428,0.005544526026514519,2.841842075445372e-05,9.329671200010549e-08,2.7931615054542318e-05,2.935186666748515e-05,0.04130265044324608,0.00013559520131464973,0.04059513872642877,0.04265929832268786,0.004256615499094486,0.00025630804903110043,0.0034806397722430354,0.005544697610687892,0.12210288298473713,-0.0005373815373815344,True,False,False
0,4.4048454906658225,0.03246982197267809,4.363553174091784,4.472488402263826,0.007269135143871552,0.010917798211208831,5.1355738284826935e-05,0.041536238561255504,0.003595228368718876,0.01456413099120044,1.3599111391149332e-07,0.1138820575745533,-0.7833657328114925,0.022703258064638444,-0.8138502770135948,-0.7535002934536783,0.017963800904977338,7.157574435483098,-17.7,13.7,33.13781818181818,0.011364020010202659,33.11,33.16,3.310858943707545e-05,4.892991347818857e-08,3.3104220478867456e-05,3.365595748684858e-05,0.0047872057957425275,0.00020715363729159142,0.0041684196290084595,0.00485714116836966,2.840878103762379e-05,4.19842470436135e-08,2.8405032258856593e-05,2.8878449463170872e-05,0.041288640310239794,6.101889667790574e-05,0.041283191925181796,0.04197124512393483,0.004787404997009957,0.00020714389191443236,0.0041686478549733804,0.004857343617430122,0.12669683257918554,-5.13941798346394e-06,True,False,False
0,4.356162282066751,0.011317356393804198,4.338937403052347,4.3840345367287625,0.007653108599973221,0.0080104424460819,5.31981983632984e-05,0.027219223407231985,0.005061460950138112,0.01770910225699542,1.3244710786453062e-07,0.09131578023063175,-0.82983791628974,0.011792867930001361,-0.8510503811768808,-0.8140358790385289,-0.07396834369700389,6.8696475479740915,-17.72,14.45,33.13306306306307,0.011504370141407675,33.11,33.15,3.311232509028413e-05,8.048024553744756e-08,3.255248347088633e-05,3.365595748684858e-05,0.0047997279745625445,0.00019218916085666552,0.0041684196290084595,0.00554519436712269,2.8411986409880422e-05,6.905596741512879e-08,2.7931615054542318e-05,2.8878449463170872e-05,0.04129329892132168,0.00010036428511673269,0.04059513872642877,0.04197124512393483,0.004799926646584631,0.0001921800329618858,0.0041686478549733804,0.005545371696963781,0.11758055398530243,-0.00016286416286415852,True,False,False
0,4.326573651317163,0.015171376447451305,4.300236426971242,4.364117496831916,0.006248134593886476,0.008380736487796504,0.00013510183322562757,0.033804754340216146,0.004280549180985755,0.01940289748489785,1.2024868360771546e-07,0.10883542282977421,-0.8558710698250248,0.007636012989555149,-0.8739220337587343,-0.848794334932564,0.01164592760180994,7.174617591459023,-34.76,17.74,33.10418181818182,0.01308979700586241,33.09,33.13,3.312856181745486e-05,2.540953877253287e-07,2.9242061422999583e-05,3.64146425267542e-05,0.0045187024397806115,0.00046470563183235325,0.0027963232751514262,0.006232579225267549,2.8425918311988107e-05,2.1802620876610253e-07,2.5091111828656657e-05,3.124553548474225e-05,0.041313547213362084,0.0003168740573566627,0.03646681953391059,0.045411511117699976,0.004518915443597562,0.00046468473354858205,0.00279673491214875,0.006232731867689142,0.12669683257918554,-0.0001558055136036685,True,False,False
0,4.2953135510977445,0.007324092136053304,4.2743032043809155,4.312651848010546,0.005207177940097919,0.004613846391128216,6.299542042649253e-05,0.015164134195310106,0.0040324574088033745,0.014415626614307623,1.3274265024676435e-07,0.07629329336150695,-0.8845380662401645,0.005992893621172207,-0.8933913744594447,-0.8743174697262963,-0.0282126696832579,6.64536637492269,-16.16,11.36,33.100990990990994,0.014457143874534274,33.07,33.13,3.3222182350483334e-05,2.2633355009965758e-07,3.3104220478867456e-05,3.365595748684858e-05,0.0042751951998275875,0.0002512657091884594,0.003480366430255428,0.00485714116836966,2.8506249285570845e-05,1.942052009938254e-07,2.8405032258856593e-05,2.8878449463170872e-05,0.04143029832174777,0.00028225317656510785,0.041283191925181796,0.04197124512393483,0.004275420033262379,0.00025125364485680657,0.0034806397722430354,0.004857343617430122,0.11764705882352942,-0.00014355914355913544,True,False,False
0,4.3179411805395995,0.01697878079088808,4.280943678440845,4.347375688711854,0.015541632235472115,0.011875302913626427,0.0003620955172347549,0.038345583218373,0.012832809273967386,0.036038329064004844,1.8341098356744467e-07,0.19257663918552306,-0.873527301734822,0.009235001987693024,-0.8886455328018048,-0.8606027922141868,0.06591294516676091,8.293462710334646,-25.0,24.72,33.10236363636364,0.012701749697231144,33.07,33.13,3.30892411935829e-05,1.7746073454238957e-07,3.255248347088633e-05,3.475943150281083e-05,0.005040921434017001,0.0008125068828807044,4.010043649027853e-05,0.006232579225267549,2.839217930308336e-05,1.5226994674515282e-07,2.7931615054542318e-05,2.9825283871799426e-05,0.04126451174784009,0.00022130548483912928,0.04059513872642877,0.04334735152144089,0.005041165002089863,0.0008121651313722418,5.9251837759271344e-05,0.006232731867689142,0.12210288298473713,0.00022739670446090542,True,False,False
0,4.294107862425428,0.012223720424219833,4.265309469834284,4.312049934322319,0.00277843705177736,0.0037113972717891,6.981732399642211e-05,0.01605134449963589,0.0015597741497743443,0.007398001645187292,1.5860150239226795e-07,0.05306264527661225,-0.8830360338483239,0.009853117311119552,-0.9044684071861133,-0.8717316870423353,0.05904411764705885,8.541935187891342,-20.93,15.62,33.09558558558559,0.015056540993847643,33.05,33.13,3.31035963419806e-05,1.855692373549158e-08,3.255248347088633e-05,3.3104220478867456e-05,0.00488760570062293,0.00015039628899595866,0.0041684196290084595,0.005544526026514519,2.8404496719032708e-05,1.5922743677600332e-08,2.7931615054542318e-05,2.8405032258856593e-05,0.04128241358445923,2.3141733381165002e-05,0.04059513872642877,0.041283191925181796,0.0048878005053227406,0.0001503908605835769,0.0041686478549733804,0.005544697610687892,0.11312217194570137,-0.0002428922428922352,True,False,False
