,EDA_mean,EDA_std,EDA_min,EDA_max,EDA_phasic_mean,EDA_phasic_std,EDA_phasic_min,EDA_phasic_max,EDA_smna_mean,EDA_smna_std,EDA_smna_min,EDA_smna_max,EDA_tonic_mean,EDA_tonic_std,EDA_tonic_min,EDA_tonic_max,BVP_mean,BVP_std,BVP_min,BVP_max,TEMP_mean,TEMP_std,TEMP_min,TEMP_max,ACC_x_mean,ACC_x_std,ACC_x_min,ACC_x_max,ACC_y_mean,ACC_y_std,ACC_y_min,ACC_y_max,ACC_z_mean,ACC_z_std,ACC_z_min,ACC_z_max,Resp_mean,Resp_std,Resp_min,Resp_max,net_acc_mean,net_acc_std,net_acc_min,net_acc_max,BVP_peak_freq,TEMP_slope,0,1,2
0,0.6105622752307547,0.02128623663809501,0.5782546143832951,0.6492541989286418,0.009200113259159235,0.004845202258041124,0.0009940190564442153,0.021485697629265686,0.0066444870606795405,0.02033120911881141,4.051944246796779e-08,0.1021555298744138,0.954202434768579,0.09694302828244569,0.8130045792560745,1.134504485138763,-0.7690672696438666,38.74089836155443,-128.88,115.64,33.40509090909091,0.01629687055822828,33.37,33.43,2.2214739893097627e-05,1.2331151218652243e-06,1.82073212633771e-05,2.5379902367131716e-05,-0.03142295255939729,0.0008466090524325582,-0.0378161923070898,-0.027494725985186173,1.9061327956305785e-05,1.058072786756158e-06,1.5622767742371126e-05,2.177719139845672e-05,0.027703276419397422,0.0015377775856194275,0.022705755558849988,0.03165044714263938,0.03142296627696298,0.0008466074991807471,0.027494742142310333,0.03781620348827892,0.12662521198417184,0.0004301783017379194,False,True,False
0,0.555548848625512,0.01242057808038968,0.534440226288915,0.5778924347582962,0.00450161580944551,0.0029673279200248524,0.0008780705120495423,0.01363238150059613,0.003605598238435222,0.014841576154869812,5.503123625197337e-08,0.10555359937145098,0.7055252625517795,0.05804225855473138,0.6141656958348193,0.8107771710089922,0.7916911764705884,36.31300710215292,-95.51,64.11,33.43036036036035,0.020357171080836886,33.39,33.47,2.115761632754766e-05,3.1421415660085404e-07,1.9862532287320473e-05,2.2069480319244968e-05,-0.032574393776352385,0.0007034725479204492,-0.034377931335149166,-0.0316243818589207,1.8154264489875184e-05,2.6961103827030933e-07,1.7043019355313955e-05,1.8936688172571062e-05,0.026384972154444526,0.00039184621008801323,0.02476991515510908,0.027522127950121197,0.032574405720148865,0.0007034720279604415,0.03162439456913736,0.03437794185887473,0.13574660633484165,0.000423481923481956,False,True,False
0,0.5210882002602907,0.008490250387917774,0.5067081502327155,0.5368454695488275,0.006124221316856865,0.0035568840167967265,0.0009664034570813587,0.015631389683098528,0.00648019159587149,0.024415344016815606,4.260570957148602e-08,0.19913800878103982,0.5451208094239791,0.038227794083282564,0.4838257105076485,0.6129446425025822,-0.4457263990955339,38.422660063908104,-95.8,92.87,33.458,0.013599784132122806,33.43,33.49,2.117009906528479e-05,2.7037108530190427e-07,2.0966006303282724e-05,2.2069480319244968e-05,-0.03298378587559665,0.00013392697239869691,-0.03368920979578796,-0.03231243505767373,1.8164975286352886e-05,2.319915493785827e-07,1.7989853763942512e-05,1.8936688172571062e-05,0.026400538968895958,0.0003371709481171297,0.02614602155261514,0.027522127950121197,0.03298379767351506,0.00013392692018677184,0.03231244749724221,0.033689221122977515,0.13566986998304126,0.00016374005364831255,False,True,False
0,0.5210581517926405,0.018842513327919932,0.501711789103278,0.5767796465961107,0.10004837531056388,0.09721817700710801,0.011074784449953107,0.3602170218571756,0.07573126902980258,0.2727151703948546,1.8035838600383158e-08,1.9551426187808765,0.4509439309317846,0.0178435458769554,0.4287896652277564,0.4824184917155435,0.23227941176470548,67.16585061137638,-386.4,195.91,33.48810810810811,0.017451934694183612,33.47,33.53,2.105900269942434e-05,6.556113720792667e-06,-1.6000373231452603e-05,7.007060001360278e-05,-0.005262537275868526,0.01988510096839778,-0.03644142259080008,0.05712512401170577,1.8069649197701367e-05,5.6254646397950505e-06,-1.372909892511402e-05,6.012398494791312e-05,0.026261994320278266,0.008175915248980998,-0.01995354276383787,0.0873827562416348,0.016060818768203353,0.01284140646395725,4.6413939578095886e-05,0.057125126903042826,0.13122171945701358,0.0003796068796068852,False,True,False
0,0.49527023235667433,0.0067707250533447245,0.4832272567402348,0.5099601083416933,0.006918072329967393,0.003855829162459934,0.0014590977605368224,0.0184950849628171,0.005966087879356406,0.021463661864418438,3.969488324151449e-08,0.16904154956070022,0.4255126173772019,0.031596303887703785,0.3684279980150624,0.48083507149742555,-0.6620475113122167,40.11807974825123,-120.68,96.25,33.51827272727273,0.01728652712422823,33.5,33.55,2.0217666175941813e-05,4.212615778458768e-07,1.8759058271358226e-05,2.3172954335207218e-05,0.004900795076366772,0.0006892191532619991,0.002776941397514458,0.0062185440724959505,1.7347741515104478e-05,3.6146293539120213e-07,1.6096184946685404e-05,1.9883522581199616e-05,0.025212791026252145,0.0005253415521449311,0.02339380875760302,0.02889823434762726,0.004900869240210077,0.0006892068621906209,0.0027770716759151466,0.006218608709930749,0.12669683257918554,0.0003145413971102058,False,True,False
0,0.4751825357979048,0.008073075907860432,0.45823831295905854,0.4865491313422231,0.013336513285188251,0.007054175317091319,0.002568056772867538,0.03219957015359293,0.009546902958095812,0.032030955403821934,4.8352597079026616e-08,0.17877313864405775,0.3262945689579579,0.033427994591054624,0.25812791715691946,0.36704165839439357,0.4752232899943465,37.06468453640552,-138.96,102.35,33.56657657657658,0.020158260003172723,33.53,33.61,2.241797861016186e-05,1.2199556691765985e-06,1.9310795279339348e-05,2.6483376383093966e-05,0.006379014117222019,0.00398108106580257,-0.0013520461356118928,0.01929623323306072,1.9235716666595563e-05,1.0467813359162898e-06,1.656960215099968e-05,2.2724025807085277e-05,0.027956728784135822,0.0015213668620586152,0.02408186195635605,0.03302655354014544,0.006420110292610627,0.003914497735798315,3.4563572026241615e-05,0.0192962622124127,0.13566986998304126,0.0004089154089154383,False,True,False
0,0.44848646069508713,0.006193581746343578,0.4373372748815995,0.46078464326883206,0.013554888674921443,0.013433993974172553,0.001441415952700312,0.05815587193932712,0.00985126265216945,0.039221847376571,3.406736548416944e-08,0.31384433645260423,0.20332799334351584,0.028632201154140367,0.16606753848117345,0.2571505342182068,-0.08352941176470621,48.95790370788516,-225.37,196.91,33.59945454545455,0.013736468814056177,33.57,33.63,2.2005194219898756e-05,1.7792789017691104e-06,1.1034740159622484e-05,3.475943150281083e-05,0.008152532895705802,0.006630035619960127,0.0014015033406165698,0.03856305947936191,1.8881527570710914e-05,1.5267078901470504e-06,9.468344086285531e-06,2.9825283871799426e-05,0.027441958855696356,0.0022188805937010804,0.013761063975060599,0.04334735152144089,0.008152609058417176,0.006630005751218883,0.0014017755961701437,0.03856307526844012,0.13574660633484165,8.872258413540156e-05,False,True,False
0,0.42733656151621585,0.005669128978687194,0.417938868484266,0.4389442603123432,0.002180591688852096,0.0013153170448927276,0.0002100415307013148,0.00456790255153927,0.001666448480822248,0.006030513806172144,5.124927564877785e-08,0.0359755040244405,0.1171568653659625,0.025530261032473408,0.07437354131045609,0.1652420764050868,0.29152063312606,34.60419483249641,-75.57,57.74,33.62585585585586,0.014299934422511177,33.59,33.65,2.160574661231061e-05,2.616032627674864e-07,2.04142692953016e-05,2.2621217327226096e-05,0.004273577208629356,0.0005529769982009885,0.002090224879977771,0.0055311592143510915,1.8538782083424563e-05,2.2446833093913764e-07,1.7516436559628233e-05,1.941010537688534e-05,0.026943820793250722,0.00032623688305780064,0.02545796835386211,0.02821018114887423,0.004273674024243244,0.0005529617052269155,0.002090417172367789,0.005531235658930244,0.14471452798191067,0.0002539487539487562,False,True,False
0,0.4077207478599631,0.005435800679580986,0.39788371851267124,0.41835528707687863,0.00208892874235049,0.0020823049065678114,0.00011559491162803451,0.007837059794157122,0.001949670737352228,0.008436817314223735,5.36013967308846e-08,0.05504343404437784,0.0269459276033843,0.02445084297964483,-0.012126961913526746,0.073452445736429,0.0982579185520366,35.2104557099752,-74.82,48.43,33.64663636363637,0.011752592743594702,33.61,33.66,2.1457826170125623e-05,2.161927006062663e-07,2.0966006303282724e-05,2.2069480319244968e-05,0.004171435392157882,0.0001417019635445406,0.0034656629368756595,0.004843106015598062,1.8411859145163832e-05,1.855038586022739e-07,1.7989853763942512e-05,1.8936688172571062e-05,0.02675935404200132,0.0002696068544386768,0.02614602155261514,0.027522127950121197,0.004171531326802803,0.00014169891271581062,0.003465773045121734,0.0048431933203664955,0.14479638009049775,0.00016883438901784935,False,True,False
0,0.39242682923060024,0.0039046715401662912,0.3840167712384394,0.40004411712092874,0.0016429534154294254,0.0015049352289103965,0.00011843672648586818,0.005601761334607869,0.0011127176727533444,0.004782050906563179,4.666610712439345e-08,0.029609675137957037,-0.043112961684764306,0.016430245912121656,-0.07165402219701877,-0.01282097370809654,-0.24897117015262846,37.013123725243545,-77.15,49.02,33.667567567567566,0.010805404053379224,33.65,33.68,2.149529977195614e-05,1.7460831996244615e-07,2.0966006303282724e-05,2.2621217327226096e-05,0.0045570822126122,0.0003531221844227343,0.0034663312774838306,0.0055311592143510915,1.844401331926773e-05,1.4982243621668032e-07,1.7989853763942512e-05,1.941010537688534e-05,0.02680608614667313,0.00021774833179789892,0.02614602155261514,0.02821018114887423,0.004557170765408743,0.0003531153657307128,0.0034664472346935763,0.005531235658930244,0.14471452798191067,0.00016023166023167266,False,True,False
0,0.38680098068219604,0.0016118453995338032,0.38241761898951726,0.3899510711476215,0.004025780480420526,0.0046780895241053935,5.417517848787095e-05,0.017513088700562358,0.0031671992782721673,0.016509270873035366,4.1402934247702916e-08,0.15094985929291518,-0.07145697162927603,0.005251735442470004,-0.08191580539772075,-0.06388770508942213,-0.33403846153846184,51.51727829762456,-223.43,334.89,33.68472727272727,0.015187458062559778,33.66,33.73,2.133175051898062e-05,2.1365893583609315e-06,7.72431811173574e-06,2.9793798430980708e-05,-0.002899942792767602,0.009790313525889497,-0.009606011158215568,0.03785295104053922,1.8303680100739083e-05,1.833297651183607e-06,6.627840860399872e-06,2.5564529032970932e-05,0.026602129216041926,0.0026644707916569856,0.00963274478254242,0.037154872732663616,0.008352179421231627,0.005867906505832665,4.147628643148994e-05,0.03785295261136724,0.13574660633484165,0.00020665870207155085,False,True,False
0,0.3726111863257774,0.006620159097788507,0.3616508916505237,0.38526830876569923,0.009893117837479988,0.004407697063874961,0.0018896673080855632,0.019006108043486375,0.007520335887911748,0.02748503411363057,2.760172110316539e-08,0.1972479838299872,-0.14259584906199105,0.03140952763429393,-0.18787509128574437,-0.08296368451963587,0.13821832579185567,48.39199953688743,-170.23,153.82,33.72027027027027,0.018754851952080032,33.68,33.75,2.4112280349926212e-05,4.425314159602533e-06,1.2138214175584734e-05,3.8621590558678696e-05,0.01808437788935466,0.013934984652956074,-0.00960667949882374,0.03992579906470454,2.0689510016146433e-05,3.7971349163569016e-06,1.0415178494914085e-05,3.313920430199936e-05,0.030069637135097065,0.005518664724237183,0.01513717037256666,0.0481637239127121,0.019701462620327546,0.011533114797483618,3.160098013827805e-05,0.039925804253998706,0.14932126696832582,0.0003048438048437791,False,True,False
0,0.3556162904503876,0.0033513617611863698,0.34840619595189537,0.3614966315852229,0.004210541913510701,0.005437745144672719,0.000546606949009489,0.027851033804098764,0.004619539357609988,0.020397962130987723,5.954486774484291e-08,0.1460929377707597,-0.21537855799842903,0.016800808871818222,-0.25001679265543675,-0.1884402211727167,0.5058733747880156,33.34519126968702,-184.5,194.15,33.718999999999994,0.016697524949809073,33.68,33.73,2.9369385347918305e-05,1.4359386063959571e-06,2.2621217327226096e-05,3.9725064574640946e-05,0.018251862555739844,0.00592840839739388,-0.01166616071082563,0.024115278986764615,2.5200361952729188e-05,1.2321052073240108e-06,1.941010537688534e-05,3.408603871062791e-05,0.03662560104131513,0.0017907121274299358,0.02821018114887423,0.04953983031021816,0.0186638861406616,0.004463198892628713,5.5301715241986593e-05,0.024115306383154858,0.14471452798191067,-2.9303699028468007e-06,False,True,False
0,0.3424569034754013,0.0034436438412952914,0.3361352567838655,0.3515361678999146,0.005231813849214084,0.004299744974565188,0.000556310055065661,0.024182005050650858,0.0026819237290336938,0.009940513635003503,5.0509693122480215e-08,0.05664462210328942,-0.2767473525285995,0.013656522499469368,-0.2992889035257896,-0.25080765026815255,-0.2976583710407239,35.140472703017856,-180.87,177.74,33.71207207207207,0.013692540578199448,33.68,33.73,2.483690327556658e-05,1.516377955517427e-06,1.2689951183565858e-05,4.027680158262207e-05,0.011018700233209102,0.0019607378956076373,0.0034723463429573724,0.030311767819190913,2.1311271751676835e-05,1.301126083623918e-06,1.088859569922836e-05,3.455945591494219e-05,0.030973290714002344,0.0018910254119622876,0.01582522357131969,0.050227883508971186,0.011018750263802272,0.0019607308706886934,0.0034725216883445048,0.0303117951599435,0.14027149321266968,0.00013531063531062272,False,True,False
0,0.3311106298428761,0.0040934410628848065,0.32241365939367544,0.33782353625540346,0.00596579546814539,0.005188021410720466,0.0007777870926038045,0.020987676568487736,0.006874567180687729,0.026765195265527515,3.266536693219413e-08,0.20624146030558052,-0.3297430148506978,0.021698263881368963,-0.3657355035443926,-0.2996221985150474,-0.3759129451667609,32.08998874551045,-137.36,113.42,33.72099099099099,0.016456828091317117,33.68,33.75,2.6562552202318374e-05,3.366881385821091e-06,3.310422047886746e-06,4.138027559858432e-05,0.009646261970703191,0.006687283329295197,-0.010278692522980658,0.04542755129229609,2.2791962513241113e-05,2.8889480855482673e-06,2.8405032258856597e-06,3.550629032357074e-05,0.0331252911178196,0.004198727788467454,0.00412831919251818,0.05160398990647725,0.009761775632606955,0.006517405531664655,7.11022053111256e-05,0.045427554643099985,0.14019219898247595,-5.4229554229557524e-05,False,True,False
0,0.3166246100133559,0.009079595827164864,0.29767181105779067,0.3346240842135188,0.019283574241755804,0.010151519621281708,0.0036184565794532436,0.0417739439967875,0.013141122521301831,0.044613108895985215,2.667753301599518e-08,0.2801670787199581,-0.4098862144381954,0.033571948777317534,-0.46217973200732776,-0.3660149821203694,0.36402149321266897,65.36576171764285,-328.77,231.43,33.734545454545454,0.01475402999751785,33.71,33.77,3.1043944615354227e-05,3.4795246490463126e-06,8.827792127697988e-06,4.248374961454656e-05,0.016624045541783827,0.009912361360998885,-0.033675174643016365,0.039921789021055504,2.6637215300212445e-05,2.9856014874218396e-06,7.574675269028425e-06,3.64531247321993e-05,0.03871388919997394,0.004339201522255393,0.01100885118004848,0.05298009630398331,0.018029691909320834,0.007034951210389916,0.0006469547076523578,0.03992179222497225,0.14479638009049775,0.0001540923742758805,False,True,False
0,0.3090929300121315,0.003395321006846848,0.3026124880137268,0.3149849843048367,0.010544765797716567,0.006919559133101322,0.0006534473295434732,0.025930348898434374,0.007922488286240375,0.02801344017574391,4.7298638117254654e-08,0.2033568392094262,-0.43595571165067615,0.017091999981962293,-0.4623990888237871,-0.41089620347388284,0.15464669304691914,43.05355805769954,-133.81,152.47,33.75720720720721,0.011051217223882638,33.73,33.77,3.136287856453789e-05,1.0595572768175854e-06,2.7586850399056214e-05,3.586290551877307e-05,0.018643447713295295,0.0025978747434996174,0.00898679704210418,0.022055129434154552,2.6910876150217642e-05,9.091517091400015e-07,2.367086021571383e-05,3.0772118280427976e-05,0.039111621309207874,0.0013213392667713367,0.0344026599376515,0.04472345791894695,0.01864349504850616,0.0025978641048958967,0.008986913755100183,0.022055167010275545,0.1492368569813454,0.00014250614250616478,False,True,False
0,0.31284727987693883,0.002280484383587212,0.3061954887306135,0.3164795458729931,0.004173661546947466,0.005355844279383869,0.00031784428541749445,0.02274841012070898,0.0033099344153947733,0.019589521936965497,3.403795112433272e-08,0.1871060104524782,-0.41246373472816256,0.012856849744919569,-0.45065015751985704,-0.4026691619873437,0.18864819004524885,35.485021057491,-100.16,86.81,33.77363636363636,0.01217059719967795,33.75,33.79,3.1729871054009494e-05,9.97630481416674e-07,2.7035113391075092e-05,4.358722363050881e-05,0.01757756547572284,0.0029674442689368486,-0.003395487173017672,0.024115947327372787,2.7225773566661985e-05,8.560155048855187e-07,2.3197443011399553e-05,3.739995914082785e-05,0.03956928565407979,0.0012441123832239857,0.03371460673889847,0.054356202701489366,0.01759892818912242,0.002838161523800459,0.0006457279106045461,0.02411597582978661,0.15384615384615385,-1.226247097807435e-05,False,True,False
0,0.30365202923203666,0.006313248352772533,0.2981641909202878,0.324421455366496,0.022775056381375617,0.028453582887899145,0.0024093250572724267,0.10657132752918953,0.017206510143717355,0.08220972731715713,2.6912081008134692e-08,0.7433588705769542,-0.4728929802319804,0.005262647988180105,-0.47734815181383505,-0.45206936473558873,-0.44298642533936694,81.43014643556899,-377.95,337.06,33.78027027027027,0.012610202179868756,33.75,33.81,3.181100884930084e-05,5.668738350663157e-06,6.620844095773492e-06,5.075980473426343e-05,0.005718086171287483,0.01269951874401433,-0.03298912646608785,0.04267333347545946,2.7295393743767024e-05,4.864053386195708e-06,5.681006451771319e-06,4.355438279691344e-05,0.03967046994801407,0.007069298413278088,0.00825663838503636,0.06330089428527876,0.009903459358319069,0.009788950300953546,5.036406209538064e-05,0.04267333620649831,0.06787330316742082,-2.2815022814928493e-06,False,True,False
0,0.3014373881027387,0.002180907865663512,0.2976888666748533,0.3127248222868678,0.008463537711092116,0.007389146949547753,0.0013673701908556621,0.03256042293168011,0.006121374174793964,0.027102649113800198,2.483091576799268e-08,0.22953829428774325,-0.46912809940768274,0.003366984676992899,-0.4743255144128278,-0.46481388237453125,-0.05382702091577161,41.166456096853096,-143.51,190.65,33.78509090909091,0.012760709087415646,33.77,33.81,2.8510776100556806e-05,4.284129317467244e-06,1.82073212633771e-05,4.08285385906032e-05,-0.001206291923747961,0.005015871998119607,-0.011654798920486719,0.017938172031975282,2.4463633432429938e-05,3.675991450741256e-06,1.5622767742371126e-05,3.5032873119256466e-05,0.03555485749759725,0.005342597719774161,0.022705755558849988,0.05091593670772422,0.004225378154934289,0.0029568878585716236,4.5426408948774694e-05,0.017938250539712035,0.13566986998304126,-0.00023091314834432631,False,True,False
0,0.29684077870268505,0.00280740443411462,0.29148540375460313,0.30151305931803946,0.0014255120485428805,0.0017791957709480252,2.2905893799486323e-05,0.0073401703148175505,0.0012138773177234666,0.006484527962417599,4.603518502770826e-08,0.05996981707546368,-0.48324267464972237,0.01295036904873186,-0.5067637335501094,-0.46546787136373663,0.40022058823529433,30.97939083833296,-75.5,69.7,33.78549549549549,0.011340894524501264,33.77,33.81,2.411477689747364e-05,8.663484442221231e-07,2.2069480319244968e-05,2.5931639375112838e-05,-0.003917754632125226,0.0006906644700223693,-0.00547435026265653,-0.002035420950107724,2.0691652175441973e-05,7.433691278502959e-07,1.8936688172571062e-05,2.2250608602771e-05,0.03007275049798735,0.0010803948433021114,0.027522127950121197,0.03233850034139241,0.003917886800564351,0.0006906466001859563,0.002035661000784313,0.005474448016634886,0.14027149321266968,0.0001353106353106171,False,True,False
0,0.2875708156022717,0.0028130769547801077,0.2823084228514092,0.29276698190486405,0.0019344420499524085,0.0011863717880978058,8.732993234682238e-05,0.005159337723610985,0.0018600156561369998,0.006584176592096929,5.207226823344957e-08,0.04270576633839296,-0.5263209170845736,0.012576302324836246,-0.5471561003931791,-0.5071354816665179,-0.1856698699830413,30.908977243283125,-79.3,90.23,33.79727272727273,0.011080116161175617,33.77,33.81,2.231039715757157e-05,6.610245784344182e-07,2.0966006303282724e-05,2.427642835116947e-05,0.0019541970853984097,0.0033525989448150266,-0.004100917227583156,0.006219212413104121,1.9143406544590645e-05,5.671912584775381e-07,1.7989853763942512e-05,2.083035698982817e-05,0.027822567469033724,0.0008243421577073813,0.02614602155261514,0.03027434074513332,0.003137794133751089,0.0022819058758472535,3.851369454352637e-05,0.0062192804004505935,0.14019219898247595,-1.298379280030116e-05,False,True,False
0,0.2818128139468979,0.004312692338256107,0.27669005516347794,0.310257947029121,0.016826341193986804,0.034905790648300766,0.00010402625471709417,0.184132255758449,0.026185241442700347,0.12604584797578844,2.7457648599238382e-08,1.038452340140707,-0.5683941035677613,0.025665681624644793,-0.6541856112485909,-0.5474136421305311,1.5238970588235294,51.92330552043303,-236.9,439.83,33.78927927927928,0.0100644930967244,33.77,33.81,2.2277942039455032e-05,3.137060643530655e-06,2.206948031924497e-06,4.579417166243331e-05,0.008379360436071076,0.006998902061737288,-0.01853198920497616,0.042001988791910715,1.911555847374863e-05,2.6917507039430583e-06,1.8936688172571063e-06,3.929362795808496e-05,0.027782093751460013,0.0039121258484392804,0.00275221279501212,0.05710841549650149,0.008711386372231561,0.006580616397189627,0.0021006168694661115,0.04200200210539139,0.14479638009049775,-9.161109161108248e-05,False,True,False
0,0.28954037823038603,0.005231388138071523,0.2744270762850092,0.3087356933808505,0.07733303891737126,0.0680824096718036,0.0035978027314944117,0.20396681347784762,0.04754774803546441,0.1526321435158578,1.584044007074681e-08,1.1645748969839822,-0.5920973273059063,0.07488158468940873,-0.7034908291357103,-0.5066219112651543,-1.1121266968325807,176.51951701324555,-1101.54,1330.79,33.77672727272728,0.0121993450650702,33.75,33.81,3.0113980653938084e-05,4.73477794896541e-06,5.517370079811242e-06,4.689764567839556e-05,0.014462245194222078,0.01165923321682299,-0.025409179489465607,0.0426887053094474,2.58392609626239e-05,4.062669908350202e-06,4.7341720431427655e-06,4.024046236671351e-05,0.0375541615233427,0.005904586906525607,0.006880531987530299,0.058484521894007546,0.016334126685156377,0.008844596675422771,4.740147020741708e-05,0.04268871729445133,0.12669683257918554,-0.00013101007596419268,False,True,False
0,0.2821536350683166,0.0070744625532480334,0.2711745657213478,0.30062101145404535,0.03800133528477555,0.03551253062628373,0.0016113881986340095,0.14009406403102742,0.028750949325934094,0.11637095088129372,1.9524083239019774e-08,1.1164399323681669,-0.587509885059987,0.03839033860012901,-0.6356198542523319,-0.5397832749788734,-0.23184284906726946,65.33222901070316,-377.93,348.28,33.75774774774775,0.013530079935577012,33.73,33.79,2.6274526781202802e-05,2.531248207744583e-06,1.1034740159622484e-05,4.248374961454656e-05,0.0012337824409079823,0.009802172912751659,-0.009601332773958368,0.038545682623549446,2.254482268454823e-05,2.1719341508753034e-06,9.468344086285531e-06,3.64531247321993e-05,0.03276610402423328,0.003156636950182828,0.013761063975060599,0.05298009630398331,0.006748079998939486,0.007212464928575847,4.6413939578095886e-05,0.03854568594184812,0.1492368569813454,-0.00014706914706915744,False,True,False
0,0.2789658072116599,0.006507619796080525,0.27095924027287416,0.29265249849951885,0.02442025579146579,0.0204211851009886,0.0009548747833139982,0.07733563860231556,0.017963053387764043,0.06805842717806361,3.450079663624983e-08,0.4108427678228761,-0.5885194916145083,0.019497297067910153,-0.6120605772103157,-0.5264760968962073,-0.376414027149321,58.004713224303515,-323.87,238.14,33.75327272727273,0.014721206753306943,33.73,33.79,2.744454718885294e-05,3.7696542104236103e-06,1.3793425199528107e-05,4.800111969435781e-05,-0.0036856673194790362,0.01854424136273383,-0.030932318616518642,0.03855102934841482,2.3548757135868065e-05,3.234546770861783e-06,1.1835430107856916e-05,4.1187296775342064e-05,0.034225198252905244,0.004701012620424997,0.01720132996882575,0.05986062829151361,0.015111795055213696,0.011351862136343219,4.44388783194535e-05,0.03855103551794891,0.15384615384615385,-0.00038085792214237176,False,True,False
0,0.2843172179217816,0.005945117468578947,0.27294736331991704,0.29718615447864205,0.018533187920196852,0.010491758554758441,0.0029403121788646263,0.03787159589824725,0.014415761853045548,0.041381094830272566,1.9850409649357914e-08,0.257839762805437,-0.557942952462542,0.029015297025104227,-0.5966617316045315,-0.5083277297198261,0.12891464104013656,93.30987778443995,-364.97,554.21,33.71648648648648,0.021004270070139334,33.66,33.75,2.936501638971031e-05,6.709270354551292e-06,7.172581103754615e-06,4.4138960638489935e-05,-0.003977553773186391,0.02093472450498379,-0.03711945068043054,0.04818110076852455,2.519661317396199e-05,5.756880485256471e-06,6.154423656085595e-06,3.7873376345142124e-05,0.036620152656257135,0.008366911883688296,0.00894469158378939,0.055044255900242395,0.01570663098484397,0.014391854467972698,6.023936838859253e-05,0.04818110447632056,0.1537591859807801,-0.00034468234468233694,False,True,False
0,0.28244131929953575,0.0013893422035339891,0.2784872812586893,0.2854763446317896,0.005927425372260185,0.0047069427497157725,5.297912880776522e-05,0.023366313686561932,0.005378279417958389,0.018156361758819666,3.512561399035552e-08,0.10447933182173025,-0.5541121163888127,0.007695582985206065,-0.5676283080957611,-0.5429274124907348,0.5366855203619919,79.94326859851661,-226.61,450.82,33.676272727272725,0.01826708529946245,33.65,33.71,3.257807308324745e-05,9.724615936376114e-07,2.7035113391075092e-05,4.027680158262207e-05,-0.01467273324446273,0.002154657448759682,-0.02335771836476177,-0.0034068489633565843,2.7953572187321597e-05,8.344193742731034e-07,2.3197443011399553e-05,3.455945591494219e-05,0.04062705069605419,0.0012127250854807956,0.03371460673889847,0.050227883508971186,0.01467279820434166,0.0021546430661102786,0.00340704288248066,0.023357751356307795,0.09502262443438915,-0.0002909181074318998,False,True,False
0,0.2686003672212597,0.00743092114031838,0.25903204444484085,0.28615676762846515,0.012121258569603242,0.011276989671140731,0.000479138400893202,0.04446917814984766,0.008100995228389774,0.03370090120232793,2.4446907720410138e-08,0.22629435017090782,-0.6239191605514924,0.023228061651891927,-0.6520091529441292,-0.5690328906674151,-0.5472357263990957,83.43174887642265,-506.43,580.07,33.66648648648649,0.013661402074235891,33.65,33.71,2.3352502649668872e-05,4.951405877395123e-06,-2.206948031924497e-06,5.738064883003692e-05,0.0024329754194847486,0.00860058008234073,-0.039850276575981176,0.037184279719423154,2.003758377311206e-05,4.24854721360629e-06,-1.8936688172571063e-06,4.923538924868476e-05,0.029122143185187566,0.006174736519365075,-0.00275221279501212,0.07155753267031512,0.005491893985553918,0.007049965640511402,3.752616391420519e-05,0.0398503244888442,0.1537591859807801,-1.0530010530006875e-05,False,True,False
0,0.259483800285539,0.0015994942555886554,0.2555196117743848,0.2630417244478381,0.0038902994218740837,0.0027712979701445912,0.00013060676867160468,0.009742247614931086,0.0029288752045174616,0.010368578212698367,2.935348328292342e-08,0.06826836564699837,-0.657822361962651,0.007119909136217608,-0.6763842079436779,-0.652207414974203,-0.1957692307692311,22.066964042836176,-49.87,33.05,33.66072727272727,0.00955035816698028,33.65,33.68,2.2807834256396184e-05,8.007423228285627e-07,1.9310795279339348e-05,2.427642835116947e-05,0.0025346634887193596,0.0004515770974238228,2.6733624326852352e-05,0.004157057838669547,1.9570231784226934e-05,6.870758828318207e-07,1.656960215099968e-05,2.083035698982817e-05,0.028442905024923047,0.000998579592503922,0.02408186195635605,0.03027434074513332,0.0025348634365969978,0.0004514558818098103,3.950122517284756e-05,0.004157175379993089,0.15384615384615385,-0.00010855893424700217,False,True,False
0,0.252751293350693,0.0019144936432245233,0.24660934932358192,0.2593536525941524,0.006969221732136137,0.007787501790127318,1.6545621939463212e-05,0.03056765233795819,0.006866713621566504,0.033729897139094515,2.6211553344479555e-08,0.31741038468517757,-0.6916772809060311,0.00928134663961876,-0.7060698239392208,-0.6768754237113956,-0.2530486425339363,31.078140333732627,-265.59,135.16,33.65072072072072,0.009696457807945731,33.63,33.68,2.0570927653902575e-05,3.3881223873780196e-06,1.2689951183565858e-05,3.9725064574640946e-05,0.0006569310356246365,0.0052399567640546065,-0.013030905317992779,0.035114773398298695,1.7650857055423348e-05,2.9071738986230726e-06,1.088859569922836e-05,3.408603871062791e-05,0.025653331875227506,0.004225216747617468,0.01582522357131969,0.04953983031021816,0.0021307739869366243,0.004831626012481977,2.2713204474387347e-05,0.035114783151808916,0.15837104072398192,-3.194103194103094e-05,False,True,False
0,0.2595136467739737,0.0012447791724131984,0.25545021461894957,0.26238161063894105,0.005647346472998235,0.006903842526553558,0.00021900981288804268,0.02773771498170123,0.002499189593109815,0.009898643514394592,3.6609657391543926e-08,0.06646223179982375,-0.6595308135680483,0.009252836540332295,-0.6881713456234202,-0.6531721762117009,0.475686828716789,27.6999754111341,-78.15,120.61,33.64472727272727,0.011063543811456075,33.63,33.66,2.1572667357307216e-05,8.711349615627166e-07,1.9862532287320473e-05,2.6483376383093966e-05,-0.008259305176408565,0.001108856041753581,-0.010978775852680771,-0.004102253908799499,1.851039847275866e-05,7.474761926746723e-07,1.7043019355313955e-05,2.2724025807085277e-05,0.026902568734954443,0.0010863639527137379,0.02476991515510908,0.03302655354014544,0.008259355329418037,0.0011088474061236222,0.004102351891039191,0.010978824596103009,0.1492368569813454,-9.782927214117928e-05,False,True,False
0,0.258042111219139,0.001132159203651552,0.2546487622753634,0.26025667322736523,0.0023973873005695007,0.0028294356285158925,3.892114830889153e-05,0.010254068358509224,0.0019508644008449814,0.008292371377138107,4.3698003132641716e-08,0.046800177447427094,-0.6630296063769148,0.0028668255470432323,-0.6700431181985217,-0.6577514715638639,0.0043947963800910015,27.123544546948214,-70.88,88.7,33.641531531531534,0.013086995502001191,33.61,33.66,2.0975368356585568e-05,1.7829320038671062e-06,1.8759058271358226e-05,2.5379902367131716e-05,-0.00738750875803738,0.0010305151982063423,-0.011670170754474659,-0.005479696987521901,1.7997886861300778e-05,1.5298424295331912e-06,1.6096184946685404e-05,2.177719139845672e-05,0.026157696663453706,0.00222343625798957,0.02339380875760302,0.03165044714263938,0.0073875609445270465,0.0010305143938182189,0.005479763009747521,0.011670206986112805,0.14479638009049775,-0.00012916812916811282,False,True,False
0,0.25683145151017117,0.0014658544656717654,0.2511837384624662,0.26002003935785284,0.0031759078115117015,0.0025713680829771127,3.910994977218236e-05,0.008825342653618975,0.002296724554781935,0.009456265005929035,3.8084000736002266e-08,0.0551437415607233,-0.66914238113693,0.001902259461927129,-0.6708096067285227,-0.6646644141242437,0.005076314301865535,38.0194647026399,-141.98,188.65,33.62927927927928,0.01233706254353529,33.61,33.66,2.107822399982126e-05,1.7652882540929526e-06,1.434516220750923e-05,3.751811654271645e-05,-0.009403517060468334,0.005122630457542819,-0.021996315460635477,-0.0013426893670974945,1.8086142008887782e-05,1.5147032335559908e-06,1.230884731217119e-05,3.219236989337081e-05,0.026285964576090327,0.0022014333140244263,0.01788938316757878,0.04678761751520604,0.009403569005009597,0.005122610902383726,0.0013431813282111101,0.021996327763203302,0.14019219898247595,-0.00017023517023516044,False,True,False
0,0.25684229716352464,0.001654449249547644,0.25237740897830563,0.2602278581815749,0.008207603247402901,0.005461305525686806,2.6928605786841053e-05,0.02024735406657601,0.006563451769338072,0.026047673014795564,3.097308695632073e-08,0.2046165968610469,-0.6742787553150119,0.004438081879905859,-0.6809610331859752,-0.6646936942283407,-0.035605203619909015,34.18178707112103,-133.47,144.13,33.62745454545455,0.012593602834784843,33.61,33.66,2.006475263866197e-05,1.480424862918287e-06,1.434516220750923e-05,2.813858740703734e-05,-0.02046862766526814,0.0030712664836343266,-0.03231778178253909,-0.01511244177006432,1.721653425825267e-05,1.2702765804393879e-06,1.230884731217119e-05,2.4144277420028106e-05,0.02502209754922218,0.0018461894846816063,0.01788938316757878,0.03509071313640453,0.020468645148398457,0.003071264379943305,0.01511246570952356,0.032317789640822055,0.14027149321266968,8.65586186686932e-06,False,True,False
0,0.2504984995779699,0.0036531772275292295,0.24197864713387585,0.2571055030188205,0.011691223541962106,0.00688633002878389,0.0017589891886738564,0.029111479937180454,0.009607932038217876,0.03209613689111562,3.286061393825701e-08,0.19700251691776038,-0.706744054890613,0.013881395037870996,-0.7251326440163177,-0.6815063979874244,-0.9207179197286598,45.576043732685555,-146.15,228.52,33.612702702702705,0.011595135809777361,33.59,33.63,1.8368972717072926e-05,3.147336154101864e-06,1.2689951183565858e-05,3.3104220478867456e-05,-0.021517550101642833,0.005216782886335594,-0.028880857491814804,0.006227232500402178,1.5761472556757323e-05,2.700567592092947e-06,1.088859569922836e-05,2.8405032258856593e-05,0.02290734580599596,0.003924940101996807,0.01582522357131969,0.041283191925181796,0.021563091944851565,0.005025060557298397,0.0007195744027747713,0.028880863677423433,0.09044657998869417,-0.00010389610389611102,False,True,False
0,0.24862399679160088,0.0017397898831502698,0.24457582073971024,0.2541668576655167,0.006502652132346345,0.008186708596893924,0.00011862392642902326,0.03501752206135762,0.005862277941375998,0.023811525554075515,2.5788782997970827e-08,0.17004927612177817,-0.7108857846639874,0.0054569402250046846,-0.728230381549068,-0.7037418207631398,1.143184389140271,39.36235401382698,-124.34,181.05,33.59763636363636,0.012409472020590794,33.57,33.61,1.6221317689399797e-05,2.5168449044884026e-06,1.1586477167603609e-05,2.869032441501846e-05,-0.022402011678814664,0.0052382019645080624,-0.028196145996102633,2.406026189416712e-05,1.3918680022769284e-05,2.159575415713813e-06,9.941761290599808e-06,2.461769462434238e-05,0.02022907537962811,0.003138675061212777,0.01444911717381363,0.03577876633515756,0.022402099553180947,0.005237870426590581,3.55511026555628e-05,0.02819615012938123,0.14932126696832582,-5.6984423956892245e-05,False,True,False
0,0.23899723662676187,0.002886816307979064,0.2329434196582033,0.24724692119619843,0.013619017328835933,0.01114804350837589,0.0005192303919955006,0.0363332658957265,0.008915428606262073,0.03272059936106478,3.431265671594019e-08,0.25023990921280037,-0.7613995743107711,0.014881477498923665,-0.7850687191221161,-0.7297418134949348,-0.2659502262443441,22.88912679692117,-61.52,105.82,33.59108108108108,0.01591747760689769,33.55,33.61,2.6020890949933318e-05,3.336452113940867e-06,1.8759058271358226e-05,3.586290551877307e-05,-0.0034001841233109046,0.00646405982677425,-0.012352877228362317,0.010352878330487671,2.2327190797586546e-05,2.8628382893691656e-06,1.6096184946685404e-05,3.0772118280427976e-05,0.032449803064720104,0.004160780437555605,0.02339380875760302,0.04472345791894695,0.005957731766101013,0.004221948059987676,3.4563572026241615e-05,0.01235292651842331,0.14027149321266968,2.053352053353852e-05,False,True,False
0,0.23594560620152655,0.0017120509409917287,0.2317931214299707,0.24058616484928097,0.003536852729502031,0.0019241239219561414,0.00032676297240796716,0.0075666719041583945,0.002667918056496826,0.009488219562442458,3.2231503591106936e-08,0.06860297889217815,-0.7659881908401538,0.004893228522801599,-0.7732914893032207,-0.7558624964945293,0.09736009044657994,17.647165962266754,-42.02,40.09,33.56781818181818,0.013367207456908597,33.53,33.59,2.5042002414221243e-05,2.0803679871587044e-06,1.4896899215490354e-05,2.7035113391075092e-05,-0.012099615933780507,0.00116291352233219,-0.017867996268117296,-0.008914616256421681,2.148725679423261e-05,1.785056978558319e-06,1.2782264516485466e-05,2.3197443011399553e-05,0.03122906314973074,0.0025943589562455447,0.018577436366331808,0.03371460673889847,0.01209966196905995,0.001162905898955697,0.008914676286206232,0.017868011413135227,0.1492368569813454,-0.0002468723936614154,False,True,False
0,0.23759446767064615,0.003312892095044069,0.23157490833909164,0.2475107448913633,0.01024108282077233,0.008501897998716486,0.00011926714646348362,0.030877484871398568,0.010240220451263502,0.03256210533336099,3.060387065989545e-08,0.2287637267266937,-0.7647794323581233,0.006474163625138988,-0.7733255288749807,-0.7554180467991229,0.6922171945701359,37.62605617654408,-95.73,149.6,33.556846846846845,0.014892461911498336,33.53,33.57,1.9640339555599568e-05,2.337036262387985e-06,9.931266143660237e-06,3.420769449482971e-05,-0.01512583271297629,0.012374092801954924,-0.026123966312545484,0.035105416629784295,1.685236717801092e-05,2.0052908500179077e-06,8.521509677656977e-06,2.935186666748515e-05,0.024492825857873695,0.0029144415775584345,0.01238495757755454,0.04265929832268786,0.018917277007694286,0.004888775255639085,4.8389000836738265e-05,0.035105420273270085,0.14479638009049775,-0.000137767637767648,False,True,False
0,0.23390936452595493,0.0026287206007185137,0.2287393363770441,0.2418881942441884,0.009986137510391499,0.006975183949904878,0.0013755146093178635,0.029268001404558208,0.005541533868105049,0.01760133319494103,3.8989183742677014e-08,0.10554366713439128,-0.7817487063248109,0.005193026372608296,-0.7882896029675864,-0.766656147178197,-0.767320520067835,51.98988073364546,-178.23,200.88,33.55836363636364,0.015176470968549845,33.53,33.59,1.9784515176463412e-05,3.411222456180341e-06,1.3241688191546983e-05,3.3104220478867456e-05,-0.020327309116354133,0.009522053479273358,-0.031629728583786064,0.024799990482476785,1.697607687732834e-05,2.9269948818699253e-06,1.1362012903542639e-05,2.8405032258856593e-05,0.024672622564787666,0.004254024088798026,0.01651327677007272,0.041283191925181796,0.021640124473838902,0.0059592210831971495,3.950122517284756e-05,0.031629736613013125,0.09044657998869417,0.00017816649009311523,False,True,False
0,0.2340408616716674,0.0032596405986766524,0.22806018865232916,0.2492898719593043,0.023987987645471227,0.022192770958717273,0.0003587539248989406,0.08587501060762791,0.018896288035791804,0.06280101669055486,2.2937360677488527e-08,0.43543407299654247,-0.794907441477924,0.014608900322144971,-0.81550501808676,-0.773907062307381,-0.5176131221719461,121.83731210098512,-768.25,819.37,33.57162162162162,0.011796805464390037,33.55,33.59,1.7289215902811227e-05,2.7939640835246388e-06,9.931266143660237e-06,3.2000746462905206e-05,-0.01893087515073594,0.0045478289360163775,-0.03370257660795139,0.0014095234279146254,1.4834988661436397e-05,2.3973571579269277e-06,8.521509677656977e-06,2.745819785022804e-05,0.021560816355947608,0.003484261336582254,0.01238495757755454,0.03990708552767574,0.01893599380751116,0.004526503523793365,4.740147020741708e-05,0.03370257914850148,0.06334841628959277,-6.528606528607548e-05,False,True,False
0,0.5253590477581289,0.018353213380652298,0.48744466694675714,0.5648683932025095,0.3185809050074451,0.10587897301692854,0.16553433003764045,0.5369366855215705,0.250137774705284,0.44146750169261967,1.5936956643258782e-08,2.3506503716068323,0.2526597089781063,0.1341582203922863,0.06310363339138182,0.4217461374245922,5.829717354437538,152.75278330746704,-668.58,798.9,32.70018181818182,0.018621375612221266,32.66,32.73,3.1806235788905084e-05,7.614944092957995e-06,-2.869032441501846e-05,7.007060001360278e-05,0.008764753111809822,0.016268041995466578,-0.08799194524862362,0.04682103454561461,2.7291298225656227e-05,6.533992629367039e-06,-2.461769462434238e-05,6.012398494791312e-05,0.03966451762031874,0.009496348016706702,-0.03577876633515756,0.0873827562416348,0.015220827755782741,0.010470108704637403,6.023936838859253e-05,0.08799198706697091,0.12210288298473713,0.00016085476635934766,False,False,True
0,0.602596303581629,0.04392553834105657,0.5346748736370325,0.6838475955695673,0.37939370305551445,0.1382133246741089,0.12009169669727418,0.7304470716891391,0.29491031677541996,0.5280757032913289,2.2461572157794762e-08,2.308354890379116,0.5467145283507918,0.23393254168451158,0.2705760429522086,0.8526155036759612,-1.2991176470588244,120.80196511513496,-560.99,295.56,32.71792792792793,0.015321827396180819,32.68,32.75,3.167744355551355e-05,8.607289302861897e-06,-3.9725064574640946e-05,7.007060001360278e-05,-0.0025916411757458844,0.01802190421604641,-0.08804006577241197,0.055817188356233186,2.718078822145565e-05,7.385473114075508e-06,-3.408603871062791e-05,6.012398494791312e-05,0.03950390503338381,0.010733869310484017,-0.04953983031021816,0.0873827562416348,0.015007441925180262,0.010297414035143946,4.6413939578095886e-05,0.08804007212398303,0.16742081447963802,0.00016461916461914995,False,False,True
0,0.6989547187612789,0.03763228301475894,0.6281748039581762,0.7816283780576508,0.5626513683815104,0.15064143845965627,0.285810719349757,0.8616854934013792,0.43910984202712805,0.6152019581641784,1.8632386300510007e-08,2.7698452030826193,0.808709217010226,0.06009092209939255,0.7667800005449023,1.0134549858144304,-0.1966139061616727,141.8333360495406,-579.86,427.78,32.733636363636364,0.02092920669967162,32.68,32.77,3.083673116891788e-05,7.124532052628169e-06,-1.2689951183565858e-05,7.007060001360278e-05,0.009385225816121957,0.019158866555127767,-0.05845110486359898,0.06887549563916098,2.6459416078682652e-05,6.1131952318088355e-06,-1.088859569922836e-05,6.012398494791312e-05,0.03845548008008026,0.008884771181774722,-0.01582522357131969,0.0873827562416348,0.017716252344886618,0.011875397892942072,4.44388783194535e-05,0.06887553794103426,0.045223289994347084,0.00044036697247706706,False,False,True
0,0.7495600629233231,0.03151764111575825,0.7023244293466923,0.8243083709578503,0.36532032943277276,0.11801368553707675,0.1497951913663304,0.5570315680584088,0.26822637541141797,0.5086255828398086,2.7845617367461273e-08,3.3558565283742667,1.23853116659819,0.07886256697404846,1.0235706418323367,1.4459330355824034,-3.738704751131217,183.49930649013945,-717.85,1024.11,32.73918918918919,0.011372625437279193,32.73,32.77,3.134914755302704e-05,6.787786714149164e-06,-1.434516220750923e-05,6.069107087792367e-05,0.005677052983068926,0.018433220942645073,-0.08803538738815475,0.05716522444819605,2.6899094274092176e-05,5.824251342958717e-06,-1.230884731217119e-05,5.207589247457043e-05,0.039094497813311306,0.008464827070805139,-0.01788938316757878,0.0756858518628333,0.014662366373819045,0.01252287481848473,5.727677650062896e-05,0.08803539582034334,0.08597285067873305,-2.0709020709023944e-05,False,False,True
0,0.8035491631163444,0.02524566998843413,0.7064676260836708,0.8661887190966083,0.7364248712644075,0.3953394444347027,0.07875243869010529,1.3168509338981433,0.6274615450075093,1.0310847178905507,1.5834789479640676e-08,7.6447966887942815,1.1160472831826618,0.35568258631321426,0.7080013656772388,1.6018160757275395,2.684841628959276,148.41231992290432,-526.32,634.79,32.74345454545455,0.014363330198066133,32.71,32.77,2.9524171295858713e-05,1.0428861827996354e-05,-5.020806772628231e-05,7.007060001360278e-05,0.0058507473212814735,0.021688883284688282,-0.08801199546686876,0.08742352501873325,2.5333175829052645e-05,8.948470991380042e-06,-4.308096559259917e-05,6.012398494791312e-05,0.036818629540512814,0.013005492900254665,-0.06261284108652573,0.0873827562416348,0.017787892901234514,0.013708096338527166,9.87530629321189e-07,0.08801201871934941,0.11312217194570137,0.0001615760881816057,False,False,True
0,0.7656803744833334,0.03839647926403383,0.7107121040836428,0.8441646125923004,0.7592919790964031,0.2296199569570331,0.3506213007178307,1.1301259918979236,0.5582890155599088,1.0361706964515254,2.291480072358354e-08,4.6703284146505375,0.918773788061973,0.08660825954478256,0.836280339383417,1.1622510618648718,0.8283154324477114,136.9780971067259,-664.36,654.04,32.71432432432432,0.01979998262724685,32.68,32.75,2.8903538038441678e-05,1.216618070033366e-05,-1.6552110239433728e-05,7.007060001360278e-05,0.014764015206386658,0.017967945010657398,-0.08798593018315008,0.06131493054017571,2.480064228973841e-05,1.0439175134199653e-05,-1.4202516129428297e-05,6.012398494791312e-05,0.03604465807976043,0.015172046511983,-0.020641595962590898,0.0873827562416348,0.020073429600968425,0.011733417577622949,5.33266539833442e-05,0.08798597862714667,0.09044657998869417,-0.0003932958932958665,False,False,True
0,0.7632528008946455,0.023609324239854988,0.7154652785994717,0.8025286632885243,0.48644231499012885,0.13133320968354995,0.2726367416815954,0.8735063438379328,0.38634446746784035,0.6158031752375083,2.1822309292929276e-08,2.417843190736316,1.1803880370018718,0.06528644057681134,0.9344504770920646,1.2567014312982627,0.1960972850678727,178.95063953336637,-556.34,1029.67,32.673818181818184,0.018719651558244843,32.65,32.71,2.8639145190296233e-05,1.0805994526494011e-05,-1.7103847247414853e-05,7.007060001360278e-05,-0.009705464086028131,0.018809371531237105,-0.075641741382694,0.04887316401092661,2.4573780358783817e-05,9.272069200663783e-06,-1.4675933333742575e-05,6.012398494791312e-05,0.03571494239590671,0.01347580276854712,-0.02132964916134393,0.0873827562416348,0.01691632333225152,0.012712620574589077,3.2588510767599236e-05,0.07564175660120566,0.0995475113122172,-0.0003527263710750167,False,False,True
0,0.739987644719901,0.028508663291194496,0.6755688643390532,0.8111770732944819,0.762532102614216,0.3229866184078362,0.12817210482873492,1.2546951003822553,0.542879644151351,1.1559829837655446,2.9308676374739662e-08,5.854682700147906,0.7972483266623922,0.3628156222048008,0.38771291664469026,1.485982910123658,-1.6505709440361773,127.77349905212942,-618.26,389.82,32.65684684684685,0.010701060438698813,32.63,32.68,3.1179382319802086e-05,9.459824956316841e-06,-2.6483376383093966e-05,7.007060001360278e-05,0.007253765643734329,0.015116286931445155,-0.07904123859936069,0.05990473877165292,2.6753427441995477e-05,8.116990195218436e-06,-2.2724025807085277e-05,6.012398494791312e-05,0.038882789136771914,0.011797038673650513,-0.03302655354014544,0.0873827562416348,0.013764322186035792,0.009566062695197905,5.5301715241986593e-05,0.07904129252551237,0.13566986998304126,-0.00012960687960687737,False,False,True
0,0.7917469575727079,0.02471547405015704,0.7109596177089352,0.840054563990197,0.6623487700804448,0.2092504510393298,0.2856072847488237,0.9872286147360263,0.5395268202929933,0.875247863595808,1.5476357972943333e-08,5.407787043371492,1.1358107754744666,0.23081761180851418,0.8384537636130343,1.4916687918343305,1.3188631221719458,128.81148995414821,-680.77,527.03,32.63127272727273,0.01620448974533201,32.61,32.66,2.6626927867070953e-05,1.0701673114580746e-05,-6.620844095773492e-06,7.007060001360278e-05,0.013780864762216433,0.023425617254504528,-0.07494767311846742,0.05779780537647086,2.2847199966578808e-05,9.182556352216637e-06,-5.681006451771319e-06,6.012398494791312e-05,0.03320557190633684,0.01334570694367577,-0.00825663838503636,0.0873827562416348,0.023029166566025817,0.014420303658224236,4.937653146605945e-06,0.0749476929524619,0.06334841628959277,-0.00020278159727701644,False,False,True
0,0.8886252775350525,0.025947085200243164,0.7867231839391121,0.9410367172925226,0.42092147132407776,0.3315501025071269,0.03229888134263088,1.0037293300425003,0.339685866476848,0.912466422961054,3.274194781965889e-08,5.243213825115523,1.8234713020521842,0.3120050805100458,1.1027061413338954,2.215119880134525,-1.130152628603731,111.67437283204883,-569.14,436.73,32.59702702702703,0.023300198773815048,32.55,32.63,2.7336230876786822e-05,5.480277662955748e-06,1.655211023943373e-06,6.234628190186703e-05,0.006420735005584169,0.011411108435372014,-0.08799528695166449,0.04132195568045573,2.345581646866938e-05,4.702344944298622e-06,1.4202516129428298e-06,5.3496144087513247e-05,0.0340901205185569,0.00683427524618846,0.00206415959625909,0.07775001145909238,0.00959425395818924,0.008906928915895281,4.147628643148994e-05,0.08799532529971164,0.1492368569813454,-0.000627588627588632,False,False,True
0,0.8762833977992053,0.027092170843970535,0.8210103896195068,0.9198613019912723,0.8513619753707732,0.10920631653560381,0.6734561652251905,1.063759104866118,0.6499909183174165,0.8903851176858465,1.2758160750081515e-08,3.824295872785058,1.336280739188503,0.13125864662289716,1.1650040682131904,1.5223258923819254,2.8427262443438925,168.0518914106939,-669.51,502.06,32.53363636363636,0.02220534991026201,32.5,32.57,3.0345535438961833e-05,1.2513537786937851e-05,-1.7103847247414853e-05,7.007060001360278e-05,0.0004617327679733526,0.02101901477884715,-0.08800197035774619,0.06471108605380155,2.6037946237285214e-05,1.0737224419384698e-05,-1.4675933333742575e-05,6.012398494791312e-05,0.03784292593141665,0.015605224187379614,-0.02132964916134393,0.0873827562416348,0.0157941730951797,0.013866357852892223,0.0,0.08800200221643129,0.16289592760180996,-0.0003361359691634852,False,False,True
0,0.8320719447441024,0.02822477578588211,0.7576570907363868,0.8941298921893457,0.6587865529432115,0.10183505868438986,0.42459581272462016,0.9031386923691399,0.4753160462544314,0.7709266760886757,2.1635653268958777e-08,4.0998181897508985,1.3251136696921002,0.08612328038091747,1.218015985825517,1.4923496399510363,-2.6122115384615396,111.29183447876349,-337.49,323.92,32.51846846846847,0.02009966974844908,32.49,32.57,2.8030611725611166e-05,1.1731811000445702e-05,-3.3104220478867456e-05,7.007060001360278e-05,0.010220877952865654,0.014814080110384658,-0.0701152605526001,0.08746763549887256,2.405162903049601e-05,1.0066464792161435e-05,-2.8405032258856593e-05,6.012398494791312e-05,0.03495606019139969,0.014630358249049716,-0.041283191925181796,0.0873827562416348,0.014218879541354208,0.011028949536416997,2.9625918879635672e-05,0.08746768422992678,0.0995475113122172,-0.00019936819936819012,False,False,True
0,0.7646957520957399,0.032891311762568085,0.7197584494463252,0.8693698605584776,0.14743815556955078,0.15968249746014213,0.008250954998592073,0.648748218343911,0.12607230152415316,0.42108779975681415,3.894672495619034e-08,3.2347548715314494,1.52594539960135,0.05681227797002434,1.4467414255222164,1.607517924169547,2.736579988694179,91.32338714603208,-759.9,462.5,32.47890909090909,0.02431994139846328,32.43,32.53,1.7972021657032213e-05,8.721199679478184e-07,1.3241688191546983e-05,2.482816535915059e-05,0.0011519209416308736,0.0031755490760195823,-0.016493226551827583,0.01103023807950996,1.5420869228766508e-05,7.483213760905408e-07,1.1362012903542639e-05,2.1303774194142445e-05,0.022412321106440612,0.0010875923219988452,0.01651327677007272,0.03096239394388635,0.0023668090754312304,0.002409350544865804,2.7650857620993297e-05,0.016493240972402245,0.10853589598643301,-0.0006074431395532285,False,False,True
0,0.7819986371934249,0.024226321275349884,0.7468165307739774,0.8605565325398062,0.12048405196803802,0.13603569031148446,0.00686367469894134,0.6113746854411692,0.05733051607988303,0.159144685198673,5.183731310864914e-08,0.8564747942063677,1.632679377542074,0.04818939456392281,1.5086524714519705,1.7098474820184326,-1.2144909502262444,83.2660665837896,-606.36,223.76,32.37810810810811,0.0415498279946877,32.31,32.45,1.8429513995098005e-05,8.905852167727633e-07,1.434516220750923e-05,2.04142692953016e-05,0.002346449788410215,0.0012655460405491502,-0.002046782740446636,0.006903923908816295,1.5813419919674163e-05,7.64165458233336e-07,1.230884731217119e-05,1.7516436559628233e-05,0.02298284485608537,0.0011106197305938636,0.01788938316757878,0.02545796835386211,0.002452595006020568,0.0010450961634599477,2.7650857620993297e-05,0.0069039707992759524,0.05429864253393665,-0.0012172692172691894,False,False,True
0,0.7601211635368015,0.013120870187515397,0.7369800378869652,0.7855021774833045,0.15017149847898995,0.06898419429716443,0.030821416894480404,0.3068712762226911,0.11998940817134855,0.2699355784649092,2.8489118619745568e-08,1.6774478348871709,1.502276474533929,0.0692545765792558,1.4089983293118344,1.6371649862384958,-0.09390050876201315,96.18365434212552,-496.5,339.81,32.27756756756757,0.033034863573234735,32.21,32.33,1.734698558991501e-05,1.1736627994879502e-06,1.3793425199528107e-05,2.2069480319244968e-05,0.0006593087611283663,0.0015390535672584267,-0.002731494236158809,0.005526480830093893,1.4884557864457339e-05,1.0070598007815015e-06,1.1835430107856916e-05,1.8936688172571062e-05,0.021632859045540177,0.0014636365365448668,0.01720132996882575,0.027522127950121197,0.0012820248864600957,0.0010765426293780536,2.7650857620993297e-05,0.005526532904345617,0.11758055398530243,-0.0009231309231309294,False,False,True
0,0.7621620621711729,0.014343201896129646,0.7359492343300295,0.7953563608864556,0.1196201130136572,0.0440225856229249,0.03377129588214895,0.22107996147230297,0.09859617477388248,0.21036594860280675,2.8871729229607013e-08,1.1618118063818852,1.5422498375346543,0.03837353337091971,1.4832291450357922,1.5952183690995423,-3.237183257918552,46.498075601249155,-111.35,248.42,32.190090909090905,0.024995245586276835,32.16,32.23,1.744088116631735e-05,5.495882810724294e-07,1.6000373231452603e-05,1.9310795279339348e-05,0.001301497309845558,0.0012798111607482654,-0.00342021577552001,0.0034636579150511453,1.4965124838640435e-05,4.715734920542065e-07,1.372909892511402e-05,1.656960215099968e-05,0.02174995315153243,0.0006853735916188561,0.01995354276383787,0.02408186195635605,0.0016852814090895973,0.0007006208143131536,2.9625918879635672e-05,0.0034637513783506765,0.05429864253393665,-0.0006417510087235036,False,False,True
0,0.7954431371478115,0.017603853648513662,0.768154757941497,0.8409408100926158,0.27452399252902254,0.14380094289355475,0.08037056318024023,0.6714298732180154,0.24261040950097765,0.48231268307381914,2.3989107589272862e-08,2.6002353715491644,1.5406159742163297,0.12860244696096731,1.3077106570533241,1.6723547702503612,1.129327303561335,85.87247107626551,-324.12,233.72,32.126486486486485,0.021685715811801475,32.09,32.16,1.734726063328888e-05,1.7206648784698847e-06,7.72431811173574e-06,2.6483376383093966e-05,0.0025879811180441244,0.003243816718918244,-0.017178606388147926,0.019972256300866666,1.4884793865057698e-05,1.4764142055789844e-06,6.627840860399872e-06,2.2724025807085277e-05,0.021633202043146737,0.0021457849600215705,0.00963274478254242,0.03302655354014544,0.0034078873518718676,0.002366697645773336,2.073814321574497e-05,0.019972266674590726,0.07687959299039004,-0.0005347490347490077,False,False,True
0,0.8363838500939086,0.030355232772425526,0.7985760422230476,0.9329247627381743,0.3058597688541329,0.25795895252847756,0.057793827444058844,0.9976870203124728,0.19525428060212252,0.5354728848399506,3.877851995071069e-08,4.22196686860941,1.6977003820095802,0.1340885833075713,1.3484901816351784,1.8047460428788322,-0.7339932126696832,81.79204884681778,-292.12,335.06,32.082727272727276,0.022130102828712007,32.03,32.11,1.7599411935578895e-05,1.409026498685155e-06,1.1586477167603609e-05,3.3104220478867456e-05,0.000974007900161678,0.0022546857072625543,-0.02199765214185182,0.017223385208895405,1.5101151953907209e-05,1.2090133091726207e-06,9.941761290599808e-06,2.8405032258856593e-05,0.021947651695065542,0.0017571509170566104,0.01444911717381363,0.041283191925181796,0.0016428657939201894,0.0018253357534832061,2.073814321574497e-05,0.021997662953998905,0.0995475113122172,-0.0005748934923247046,False,False,True
0,0.91933675061602,0.09055881408310142,0.7861610749273309,1.0452238527833033,0.37755358274564055,0.30031359798357554,0.05391001469228971,0.9477516090610565,0.28689890545721936,0.7867991322408261,2.7566191107553095e-08,5.140407912108857,2.0083269908377033,0.2617134759816499,1.7153866188493259,2.3694834381005476,1.7853280542986407,102.94433451217658,-586.03,397.85,32.04918918918919,0.017793519511589844,32.0,32.07,1.0494237615604779e-05,5.342053913857287e-06,-7.72431811173574e-06,1.8759058271358226e-05,-0.010185108066828515,0.008815967909882816,-0.0330252168589291,0.004147032729546977,9.004566598801183e-06,4.5837422406165245e-06,-6.627840860399872e-06,1.6096184946685404e-05,0.013087020909313855,0.006661900924119989,-0.00963274478254242,0.02339380875760302,0.01108223596505357,0.007656395750800105,1.77755513277814e-05,0.033025216890937216,0.12217194570135748,-0.00035986310986310264,False,False,True
0,0.8734977505569816,0.02509681842768072,0.8339286825857282,0.9312804513086739,0.11927236518160711,0.08809376722954966,0.01835335861285207,0.37693680684385666,0.09126969170673188,0.24543531041914715,4.30384226035585e-08,1.5372427101021646,2.0555404670445587,0.12352192667293818,1.936954043004706,2.3356011618537766,0.005596382136800247,52.098398604004196,-163.18,139.72,32.02372727272727,0.018065075582363088,31.99,32.05,9.965554884269233e-06,1.4530891180240594e-06,3.86215905586787e-06,2.04142692953016e-05,-0.01597719622704316,0.0022611812597675735,-0.023379773604831424,-0.004116957402179268,8.550931085834702e-06,1.2468211809674055e-06,3.313920430199936e-06,1.7516436559628233e-05,0.012427717945838626,0.0018120999702160238,0.00481637239127121,0.02545796835386211,0.015977202065755036,0.00226117893978767,0.004116975953138169,0.023379778589589825,0.058790276992651214,0.00034709104433873657,False,False,True
0,0.7931256844853621,0.023002601140447835,0.7598971857913678,0.8412020269674467,0.04985192223422969,0.02657349801572427,0.014276957634997728,0.10503724711731223,0.03584005027458579,0.0907645579945557,3.990389529917593e-08,0.5820518353187834,1.7546002316376283,0.09368394894040112,1.6279117517219952,1.9344598960950763,-0.4207522624434389,21.36791863126642,-75.35,68.01,32.04405405405405,0.011937593664810031,32.03,32.07,8.69984406589241e-06,8.922920513074988e-07,6.620844095773492e-06,1.1586477167603609e-05,-0.01785315946249264,0.0011506275927900835,-0.02132029239282953,-0.014435082021042031,7.464889605132015e-06,7.656300053309075e-07,5.681006451771319e-06,9.941761290599808e-06,0.010849291331921364,0.0011127482681840173,0.00825663838503636,0.01444911717381363,0.017853163215749902,0.0011506270610257608,0.014435090094602166,0.02132029482228399,0.04524886877828055,7.423657423656719e-05,False,False,True
0,0.7687592794466118,0.025624859818305205,0.7358522078244734,0.809966527059936,0.0891765458183619,0.0892872988402003,0.008743937654533695,0.2989931498830481,0.06682256277751521,0.1876182974364513,3.079934046690269e-08,1.0714252836848748,1.6029839333984026,0.05627049085144488,1.5431279246619327,1.7248210037626763,0.1260146975692486,31.628229636778556,-98.26,127.17,32.072545454545455,0.016279461007938423,32.05,32.11,8.23611035895805e-06,9.470055768216135e-07,2.758685039905621e-06,1.1034740159622484e-05,-0.018161944127399954,0.0016179641889955164,-0.021322965755262217,-0.008931324771625962,7.0669835159855125e-06,8.125768729732467e-07,2.3670860215713828e-06,9.468344086285531e-06,0.010270984175050886,0.001180979718495449,0.0034402659937651497,0.013761063975060599,0.018161947455574916,0.0016179637060041454,0.008931336607210013,0.02132296699462443,0.12210288298473713,0.0002964632689403679,False,False,True
0,0.7796603015629042,0.006524904183894315,0.7673198061952543,0.7979086303348744,0.04968041480361456,0.02403384379170113,0.00691921195673807,0.10736027360212666,0.04279630395256559,0.09778206007351907,4.504987091702439e-08,0.4490060641476531,1.6927228827642458,0.01987730004822682,1.6590937873045393,1.7292924555974203,-0.025740950226243568,26.153577362287095,-105.63,80.76,32.0927027027027,0.020624167022119503,32.05,32.13,6.972857299960543e-06,9.786572482979347e-07,3.86215905586787e-06,1.0483003151641362e-05,-0.01883907410240965,0.0013671996868584676,-0.024076515231490677,-0.01581586680280529,5.983050912442417e-06,8.397355474965016e-07,3.313920430199936e-06,8.994926881971256e-06,0.008695622552566574,0.0012204514840107828,0.00481637239127121,0.01307301077630757,0.018839076393181282,0.0013671996014208232,0.015815870077787158,0.02407651593396784,0.07692307692307693,0.0005166725166725182,False,False,True
0,0.8695092419527398,0.08882674269738626,0.760450330549553,1.0615728485437108,0.24370200394743072,0.18978902914402074,0.014435082594495507,0.71511655893447,0.2101595211867041,0.46851143298303183,3.175012341927186e-08,2.6289144824588444,1.9125853510358168,0.2558194111757305,1.6502711852300875,2.3674420051862253,-0.020135746606334406,48.54655866385043,-279.43,253.32,32.13218181818182,0.014675812853208292,32.11,32.16,5.474304634618145e-06,2.2520702216231887e-06,-4.965633071830118e-06,1.1034740159622484e-05,-0.016855342174560375,0.002422636470706256,-0.02338913037334582,-0.006886547053003841,4.697219795294705e-06,1.9323858519868556e-06,-4.260754838828489e-06,9.468344086285531e-06,0.00682682647767288,0.0028084832037536486,-0.00619247878877727,0.013761063975060599,0.016855344020182426,0.0024226361836428767,0.006886550161349258,0.023389130926986346,0.12217194570135748,0.00026346279557287115,False,False,True
0,0.24880379231669572,0.002115588292762476,0.24197440525922592,0.2528212779178203,0.009862896175958858,0.009659224045662863,0.00013308686158874553,0.03153608663551666,0.007938778389116736,0.03532940491260202,3.709061136003555e-08,0.30727617337409424,-0.7128758850438148,0.010047617004288868,-0.7323295942033027,-0.6995574597181351,-0.5621085358959861,50.83700580465754,-323.98,362.9,33.52981818181818,0.010314487733975647,33.5,33.55,1.6532160426715766e-05,2.600807177061375e-06,1.1034740159622485e-06,3.255248347088633e-05,0.0370302909939963,0.0021622150975684467,0.02617743356119919,0.053688199720981475,1.4185398219215804e-05,2.2316191317857463e-06,9.468344086285532e-07,2.7931615054542318e-05,0.020616717202861977,0.003243381668496195,0.00137610639750606,0.04059513872642877,0.037030297723157975,0.0021622122970919207,0.026177455861685673,0.0536882041510406,0.13114754098360654,7.799292202961811e-05,True,False,False
0,0.24403543001747896,0.002816720164879317,0.23930798146873783,0.24930309819299623,0.005104830838300876,0.002755315342265491,0.0007763167117419386,0.012381449016160607,0.0035178612869195543,0.013844980634195566,2.853587202644725e-08,0.10618497443962692,-0.7300399034285958,0.011927841423513507,-0.7467812653276756,-0.7172479732154604,0.14824660633484096,36.99704319365639,-211.27,149.2,33.5309009009009,0.01534746348894845,33.5,33.55,1.927646775056224e-05,1.8152266386825774e-07,1.82073212633771e-05,1.9862532287320473e-05,0.03522536619874057,0.00025556571449370923,0.03511276837647418,0.036489543114588414,1.6540147460686007e-05,1.557552797892628e-07,1.5622767742371126e-05,1.7043019355313955e-05,0.024039053216614627,0.00022637098420811184,0.022705755558849988,0.02476991515510908,0.035225375357882685,0.0002555656116211613,0.03511277657260025,0.036489551486704304,0.13574660633484165,-0.00022762372762371674,True,False,False
0,0.2430746728670506,0.003588328258113826,0.23677268038862903,0.2504205442339303,0.0060647687220794265,0.005086354267232077,0.00017389196498885363,0.02013502814410048,0.004660669172026658,0.01797184892671421,3.0989081217791536e-08,0.1280578615579159,-0.7354381909327022,0.013331795663386437,-0.7480428581580141,-0.7119979876078877,0.42717354437535326,35.74119603859213,-217.83,126.26,33.52490909090909,0.017854943269749263,33.49,33.57,1.9011833710535096e-05,4.1495247810161207e-07,1.7655584255395975e-05,2.04142692953016e-05,0.03551147502308813,0.0004614068150134125,0.03305128214264778,0.0378649811714863,1.63130785753588e-05,3.5604942076473324e-07,1.514935053805685e-05,1.7516436559628233e-05,0.023709036750244397,0.0005174736799567354,0.02201770236009696,0.02545796835386211,0.0355114838679452,0.00046140646465746244,0.03305129308878623,0.0378649887718778,0.11758055398530243,0.00018537970831548968,True,False,False
0,0.23994427892103104,0.006956984450662109,0.22998346489793028,0.25190501571245394,0.017098750321279475,0.008361289063819806,0.002623471268393137,0.04145566531768448,0.017658224497229435,0.06318506493240669,3.135059195580325e-08,0.5667725963502318,-0.7609432703152114,0.02907508393421123,-0.7931866703517674,-0.7120490967493692,1.4035180995475114,56.4918727226408,-343.01,271.63,33.53,0.010444659357341277,33.5,33.55,7.909686767132114e-06,8.249064013585931e-06,-2.0966006303282724e-05,5.351848977416905e-05,0.019386373601226282,0.010709194281041954,-0.0013994983187920556,0.05439362977554696,6.786896188093695e-06,7.078098382073659e-06,-1.7989853763942512e-05,4.592146881848483e-05,0.009863911977146096,0.010287138254573065,-0.02614602155261514,0.0667411602790439,0.019391144852680786,0.010700553360449491,0.0,0.05439364501164732,0.12217194570135748,-3.5100035100028365e-05,True,False,False
0,0.2501671658454105,0.0025296181395940203,0.24375495920465773,0.2545256998645173,0.013067878784146357,0.013259854464083965,0.0011651643168216657,0.053248491889378816,0.0058810077474244415,0.018163671099210556,3.797206402089692e-08,0.09087784721459158,-0.7097999199100026,0.022092299742206476,-0.766750670790759,-0.6905706274389022,-1.6184671945701345,48.90241820453595,-234.43,251.38,33.508272727272725,0.0159620588511939,33.49,33.53,1.989685981609758e-05,8.616523406570731e-07,1.2138214175584734e-05,3.3104220478867456e-05,0.035012074005196944,0.0008384881425211102,0.021365739554185182,0.03992379404288002,1.7072474045627624e-05,7.393396424455179e-07,1.0415178494914085e-05,2.8405032258856593e-05,0.024812723894850498,0.0010745384859563694,0.01513717037256666,0.041283191925181796,0.03501208387786008,0.0008384865408568995,0.021365775621606693,0.03992379817996137,0.13122171945701358,-0.00017054752834569275,True,False,False
0,0.2533152881135433,0.0010974865703625063,0.2504936934451475,0.2555746689806542,0.002215465181502966,0.0016617342330283032,7.772669156845723e-05,0.006395254843614397,0.0015163320842000172,0.006150881296410017,4.7492086353850826e-08,0.041271158834506064,-0.6844729717025742,0.0029369519161078967,-0.6904628964101763,-0.6810585364851028,0.5269869983041263,33.00511149259165,-88.88,51.93,33.494234234234234,0.006815697062936446,33.47,33.5,1.994918928631412e-05,2.025752889690866e-07,1.9310795279339348e-05,2.04142692953016e-05,0.034966383272177465,0.0002831261335889043,0.034426720199545666,0.035115441738906863,1.7117375277799473e-05,1.738194566969901e-07,1.656960215099968e-05,1.7516436559628233e-05,0.024877982267681585,0.00025262502523352233,0.02408186195635605,0.02545796835386211,0.03496639315502414,0.00028312597615257735,0.034426730147989706,0.035115452041608444,0.13566986998304126,-8.283608283606872e-05,True,False,False
0,0.2554609532592316,0.0032669263551978363,0.2452982169930355,0.2609158675688354,0.016920588426701976,0.015121383049325234,0.0010456164285177184,0.04943830718327173,0.012769075525650651,0.04590975150708721,2.9386901273520394e-08,0.35492219545789166,-0.6893323897408306,0.014936724297518003,-0.707702390049226,-0.6645012742277938,-0.718156108597285,43.04006213657668,-150.12,370.9,33.49145454545455,0.008865598251686264,33.47,33.5,2.7472633348761475e-05,4.577129761638141e-06,1.7655584255395975e-05,3.531116851079195e-05,0.024838219162454964,0.006264419355672117,0.009674850240857211,0.03580349493765989,2.3572856427942884e-05,3.9274000913357845e-06,1.514935053805685e-05,3.02987010761137e-05,0.034260223585420954,0.005707989002090937,0.02201770236009696,0.04403540472019392,0.024838249732312707,0.0062644056242473906,0.00967495865358872,0.035803505042369496,0.15384615384615385,-7.50174695128687e-05,True,False,False
0,0.25861045791648235,0.0013824764088309755,0.2555975135807475,0.26242005564097165,0.004166306220868542,0.005210171284173895,4.4910025200415006e-05,0.018110059416739672,0.0035001781463267494,0.01503427247067498,4.6153644628343926e-08,0.09632784853343551,-0.6620428906817846,0.003064528760128951,-0.6653522206244382,-0.6556308708454329,0.21840587902769928,38.6865945782147,-186.88,112.34,33.47162162162162,0.014556506857480896,33.45,33.49,3.011273238016437e-05,3.6176206071406104e-07,2.869032441501846e-05,3.2000746462905206e-05,0.021548257620428377,0.0005006454616867109,0.01998963315667912,0.02411728400858913,2.5838189882976132e-05,3.1040945402031435e-07,2.461769462434238e-05,2.745819785022804e-05,0.037552604841897555,0.000451141648033719,0.03577876633515756,0.03990708552767574,0.02154829418942732,0.0005006440798223955,0.019989671707013473,0.024117314788611892,0.14019219898247595,-0.0002471042471042466,True,False,False
0,0.259836594755557,0.0018801211974007672,0.24962018301252165,0.2638723333182002,0.009872457564488603,0.011732587958792567,0.0001901155318904746,0.0367769522497794,0.00957456661587077,0.03163359520080551,2.569793597362313e-08,0.1809639473700349,-0.6620869085144737,0.01166743055139771,-0.683288575931454,-0.651643871850152,0.3865893665158375,55.297474205425054,-313.92,301.06,33.44581818181818,0.016500309598531243,33.41,33.47,3.0716896886641434e-05,1.4033487145622154e-06,1.8759058271358226e-05,3.8621590558678696e-05,0.019972071164585697,0.003005119283800961,-0.0040908921184605864,0.03236857566876012,2.6356592432496743e-05,1.2041414940735803e-06,1.6096184946685404e-05,3.313920430199936e-05,0.038306038661346575,0.0017500703379562303,0.02339380875760302,0.0481637239127121,0.01998137081122275,0.0029428577446400234,0.002791974397474933,0.0323685922015901,0.15384615384615385,-0.0002583233775894433,True,False,False
0,0.26056866923463295,0.0010649672881913018,0.25774621271143044,0.2634191205069945,0.007403792959315525,0.008124528450611013,0.00027619592165227703,0.03465718036888193,0.0035726378412420947,0.014771244011709515,5.4722192471823305e-08,0.09203586518598433,-0.6564450561772528,0.009253858615551292,-0.6815203550180668,-0.6482090630626769,-0.6272922555115886,42.17695129777439,-206.25,129.43,33.43324324324325,0.013628990635752333,33.41,33.47,3.164040297068702e-05,2.6407223277862604e-07,3.144900945492408e-05,3.255248347088633e-05,0.018020228312434737,0.000633909363860056,0.016551372184738487,0.018616200121605746,2.7149005597014873e-05,2.2658682736642102e-07,2.6984780645913764e-05,2.7931615054542318e-05,0.03945771293007207,0.0003293158549034701,0.03921903232892271,0.04059513872642877,0.018020276629787505,0.0006339069339115418,0.016551424060071603,0.018616247875661657,0.13114754098360654,-0.00012478062478064414,True,False,False
0,0.26159210601177374,0.0015886387722228801,0.2582273440683689,0.26740802768063254,0.003508761571558684,0.003304500341307721,0.00015595389680275192,0.013661604047418362,0.0028037134408127225,0.014544044766207409,3.796229494645864e-08,0.13700290981489416,-0.6474964088018798,0.0022452496088693993,-0.6520470909964616,-0.6447300577036408,0.1524999999999997,47.321668448841876,-232.76,150.55,33.417272727272724,0.013471620929770273,33.39,33.45,3.1507054185401725e-05,8.343401821307756e-07,2.1517743311263846e-05,4.193201260656545e-05,0.018054418431874976,0.002226542317699676,-0.0068364215073909934,0.026866823441168565,2.7034585849535065e-05,7.159044812251008e-07,1.8463270968256787e-05,3.5979707527885024e-05,0.039291418016121835,0.0010404783852797227,0.02683407475136817,0.05229204310523028,0.01809898631906661,0.0018292380303590178,0.0006396501109542622,0.02686684705799404,0.14932126696832582,-0.0001312805716475467,True,False,False
0,0.26213164598008387,0.001159519985723288,0.2574197969077254,0.26530519949851705,0.002217322175884181,0.0017264300399105561,6.372487742381807e-05,0.006384344343821922,0.0015081242973833057,0.006838820761519163,3.628931936894286e-08,0.045225797347526686,-0.6438750930120727,0.002587556849808639,-0.6479810778154514,-0.6400749271985375,0.18951923076923116,26.8723266441652,-86.49,192.27,33.4163063063063,0.016176746943905487,33.39,33.45,3.1445264633602935e-05,6.42102274556264e-08,3.0345535438961837e-05,3.2000746462905206e-05,0.01860930051896853,0.00012231406987490105,0.017927478582244544,0.019990969837895462,2.6981567406970453e-05,5.509550008555277e-08,2.6037946237285214e-05,2.745819785022804e-05,0.03921436228458728,8.007447706863844e-05,0.03784292593141665,0.03990708552767574,0.01860934664959461,0.00012231364958787053,0.017927526475658016,0.01999101129391613,0.14932126696832582,-9.231309231308367e-05,True,False,False
0,0.26170455522267105,0.0010291783104209788,0.25857731776395804,0.2644789127020012,0.0023277896698927123,0.002805328361013539,3.635451500779455e-05,0.011182591555331037,0.0016057606800003686,0.009424761186431466,6.519951664890958e-08,0.07756572893280347,-0.645870389180004,0.003335678765087867,-0.6508197646227872,-0.640123244994693,-0.21151498021481052,23.22103272034783,-65.22,43.05,33.413090909090904,0.014125613052894458,33.39,33.43,3.144838531803722e-05,3.215366591241841e-08,3.089727244694296e-05,3.2000746462905206e-05,0.018610860980620734,6.532481173598617e-05,0.017927478582244544,0.019303584979750606,2.6984245106089875e-05,2.7589410180063956e-08,2.651136344159949e-05,2.745819785022804e-05,0.03921825398820014,4.009778637765907e-05,0.03853097913016968,0.03990708552767574,0.01861090711421536,6.53246451149741e-05,0.017927526475658016,0.019303629458965365,0.13566986998304126,-8.484547934090237e-05,True,False,False
