,EDA_mean,EDA_std,EDA_min,EDA_max,EDA_phasic_mean,EDA_phasic_std,EDA_phasic_min,EDA_phasic_max,EDA_smna_mean,EDA_smna_std,EDA_smna_min,EDA_smna_max,EDA_tonic_mean,EDA_tonic_std,EDA_tonic_min,EDA_tonic_max,BVP_mean,BVP_std,BVP_min,BVP_max,TEMP_mean,TEMP_std,TEMP_min,TEMP_max,ACC_x_mean,ACC_x_std,ACC_x_min,ACC_x_max,ACC_y_mean,ACC_y_std,ACC_y_min,ACC_y_max,ACC_z_mean,ACC_z_std,ACC_z_min,ACC_z_max,Resp_mean,Resp_std,Resp_min,Resp_max,net_acc_mean,net_acc_std,net_acc_min,net_acc_max,BVP_peak_freq,TEMP_slope,0,1,2
0,0.4096935856016514,0.00770058676171032,0.3945655326075132,0.4334815069401694,0.029113727058274152,0.01520869388346755,0.0035277231848235982,0.06539294948434639,0.019580790031421814,0.056472845131618064,4.1493148583704453e-08,0.29633110746560976,-0.5524158681889308,0.015059484544669032,-0.5747513299674591,-0.5229633582464188,1.869299039005088,64.37950463319882,-303.27,200.4,33.681171171171165,0.03543851881623504,33.63,33.77,1.770358849224857e-05,1.4077188662627119e-05,-1.2689951183565858e-05,4.027680158262207e-05,0.01277491925490954,0.012513986210513105,-0.019915447349172104,0.03649154813641292,1.5190540509505662e-05,1.2078912969154244e-05,-1.088859569922836e-05,3.455945591494219e-05,0.02207756687569468,0.017555202113797384,-0.01582522357131969,0.050227883508971186,0.015354139901788284,0.00916338465041721,5.628924587130778e-05,0.03649155805059688,0.1492368569813454,-0.0009124254124254313,False,True,False
0,0.38944317228884395,0.00532262675181725,0.37861212292126106,0.3998956072618552,0.025495162086569274,0.021198842122206886,0.0033091513841426523,0.08211036990965154,0.02093358431317892,0.06674439317368641,3.581286467380096e-08,0.3994374979310402,-0.618348612100066,0.022831027233212682,-0.6496116250693633,-0.5753198067756985,-1.0324604072398191,49.05116064949311,-199.62,178.49,33.59036036036036,0.03133188697935636,33.53,33.65,1.9461836405958615e-05,6.580726073521648e-06,5.517370079811242e-06,4.4138960638489935e-05,0.020040941586396403,0.0078688341263465,-0.008907932850339967,0.04061117890102488,1.6699202788379832e-05,5.646583236249522e-06,4.7341720431427655e-06,3.7873376345142124e-05,0.024270220411218305,0.00820660851004387,0.006880531987530299,0.055044255900242395,0.02015366249020105,0.007575181902582447,0.0006550180500929153,0.04061118264922473,0.07239819004524888,-0.0007232362232362199,False,True,False
0,0.3872231025685179,0.0048410920782955575,0.3661829805884275,0.3941872305076785,0.03685982596548855,0.027076004418591235,0.00047481459860346833,0.07936636547242469,0.025895277573521395,0.08017816324479708,2.4401504816751185e-08,0.6120836406663511,-0.637421335061446,0.022892707243939,-0.6747132086375182,-0.6084194620921333,0.3908427601809952,44.98988228485034,-171.9,267.59,33.56063636363636,0.02130069873201564,33.5,33.61,2.0952899428658737e-05,3.820493834419396e-06,9.379529135679113e-06,3.917332756665982e-05,0.03151315499786283,0.004523230998284533,-0.004086213734203388,0.038551697689022994,1.7978607427640924e-05,3.2781696424696586e-06,8.048092473342702e-06,3.3612621506313634e-05,0.026129676397441143,0.004764413054703821,0.01169690437880151,0.04885177711146513,0.031542148455502246,0.004316265216895462,5.727677650062896e-05,0.03855170427660015,0.15837104072398192,-0.0005067736627369893,False,True,False
0,0.3681535073452519,0.006268541423913979,0.35690967308809335,0.38039446238581837,0.005110800900393966,0.0029732667740679573,0.0005760859242236037,0.013330125586630109,0.0038603045693405198,0.014514744183660227,4.228454889010358e-08,0.09720001633843042,-0.6712418745792349,0.02001113188288131,-0.7005938553693947,-0.6313907720881032,0.1841605426794796,25.498538654542497,-121.15,119.85,33.50054054054054,0.02275713026475395,33.45,33.53,2.437379370551908e-05,1.996363036782691e-06,9.931266143660237e-06,2.7035113391075092e-05,0.02609070734307467,0.0035504914178484405,0.019976934685123866,0.044740834774759396,2.091390120235422e-05,1.7129766428543699e-06,8.521509677656977e-06,2.3197443011399553e-05,0.03039576189785444,0.0024895991268681335,0.01238495757755454,0.03371460673889847,0.026090727814157035,0.00355048721290339,0.019976950890269383,0.04474083876765969,0.1582815149802148,-0.0005876623376623336,False,True,False
0,0.35145229313606124,0.0045680510596619065,0.3418044639120372,0.36007015785280033,0.009363523746566444,0.007731424182242733,0.00011101062659255128,0.025804825334991337,0.008475546311125173,0.027294621168972168,3.563994011024363e-08,0.14175781283934036,-0.7329240631246282,0.020674288927524334,-0.7609300436685393,-0.7008758350431215,0.16548642533936625,40.94112390894933,-155.69,232.92,33.425999999999995,0.020054970328136877,33.39,33.47,2.2270452396812755e-05,2.5624874847420868e-06,1.2689951183565858e-05,3.9725064574640946e-05,0.027475940991861,0.006132366927725876,-0.01991477900856393,0.03373799866018447,1.9109131995862014e-05,2.1987389708656706e-06,1.088859569922836e-05,3.408603871062791e-05,0.027772753662789158,0.0031955944320155487,0.01582522357131969,0.04953983031021816,0.027893240601224778,0.0038046146595486267,0.000646340845782538,0.033738008255573396,0.11764705882352942,-0.0005316141829903746,False,True,False
0,0.3412809039667135,0.003930556831764831,0.3286934641795944,0.34696100792168066,0.022244366104563176,0.015936162040040586,0.003439691381099905,0.059004008035686055,0.01591945751886258,0.0446135504593653,3.3919294595285976e-08,0.27682200005819435,-0.7809847323847962,0.013553735677538582,-0.8011079024100602,-0.7610199927701542,-0.35087054833239145,35.42847958414857,-150.36,137.38,33.38675675675675,0.014023497304826134,33.34,33.41,2.3114351760348208e-05,5.174887437277911e-06,8.827792127697988e-06,3.475943150281083e-05,0.024423178154645345,0.008833740666990914,-0.0006492894434790941,0.039229725778653454,1.9833238719950415e-05,4.44030526819581e-06,7.574675269028425e-06,2.9825283871799426e-05,0.028825152990923548,0.006453433072098273,0.01100885118004848,0.04334735152144089,0.024424722647803133,0.008829519735156938,5.5301715241986593e-05,0.03922972750318267,0.045223289994347084,9.599859599858013e-05,False,True,False
0,0.32909973310583485,0.006853013181221064,0.3195179787353989,0.34004461582492973,0.005998453276841345,0.005188620892868244,0.0004271798180986959,0.016378201225521388,0.004309967741380969,0.016736671658606428,5.628084077946571e-08,0.10210910679584664,-0.80634918395793,0.020955251433229054,-0.8340987019298747,-0.77013166789901,0.1793552036199095,26.23053858862003,-112.98,118.87,33.35418181818182,0.018492836112654783,33.33,33.39,1.8515020748597344e-05,1.7692779602944795e-06,1.6000373231452603e-05,2.1517743311263846e-05,0.03218657998802219,0.0017090255742460499,0.028923631290737765,0.03442271015589664,1.58867888755464e-05,1.5181265956445209e-06,1.372909892511402e-05,1.8463270968256787e-05,0.02308947753507764,0.002206408746294396,0.01995354276383787,0.02683407475136817,0.03218658943991819,0.0017090232827621382,0.02892364448424167,0.03442271706534345,0.14479638009049775,-0.00039158758424808935,False,True,False
0,0.31322621225186376,0.0038832325675289565,0.30560470818418906,0.32086477660560814,0.0010118791626759164,0.000708027703177531,5.9177780794020224e-05,0.003226953929047611,0.0010416219360836053,0.004388815302971907,6.556119273165573e-08,0.030203032515756095,-0.8559195841017175,0.013208027775141852,-0.8795854610843066,-0.8344129642232632,-0.26281514980214765,19.95617170524629,-62.32,101.2,33.335765765765764,0.0068156970629384165,33.31,33.34,1.661452392811938e-05,1.7485725746915765e-07,1.6552110239433728e-05,1.7103847247414853e-05,0.03373006251694938,6.530668938917171e-05,0.03304660375839058,0.03442271015589664,1.425607011181679e-05,1.5003603671251742e-07,1.4202516129428297e-05,1.4675933333742575e-05,0.02071943003484803,0.00021805877363033856,0.020641595962590898,0.02132964916134393,0.03373006962239771,6.530666242993307e-05,0.03304661095555628,0.03442271706534345,0.1628038439796495,-4.6332046332065296e-05,False,True,False
0,0.3031507471273703,0.0027046387847099143,0.29588031933397124,0.30760926495239505,0.00432786181239921,0.004760211804098936,0.00028896462410978046,0.020181099781886102,0.003983036675488454,0.016791398169422666,5.882821898020585e-08,0.10958523413002377,-0.8940135225964326,0.009046512807360586,-0.9078327509010675,-0.8800019743556173,0.14072398190045238,39.859784873766785,-210.38,130.95,33.32563636363636,0.01009380523324682,33.31,33.34,1.6531513722167465e-05,9.901451230299879e-07,1.3241688191546983e-05,2.2069480319244968e-05,0.03371673017115788,0.0008415306046024815,0.028236914773201085,0.036484196389723035,1.4184843315240094e-05,8.495927030987e-07,1.1362012903542639e-05,1.8936688172571062e-05,0.020615910718746046,0.0012347776373083223,0.01651327677007272,0.027522127950121197,0.033716737260364546,0.0008415295048882316,0.028236929747568914,0.036484201286245535,0.15837104072398192,-0.00016554335820391134,False,True,False
0,0.29863348429633624,0.003000965770399159,0.2920559979464195,0.30452057421802314,0.005138066991540518,0.003711533963813801,0.0004794517107319754,0.012753407871865907,0.003384207728238626,0.01567152197084525,5.9401757873667194e-08,0.12024639918439288,-0.9105148510543241,0.009396182617060652,-0.9289446426102121,-0.901405688185675,0.055147058823529604,42.808974508277444,-257.26,122.38,33.30747747747748,0.012538556424701159,33.29,33.34,2.2163724989160297e-05,5.610903886518775e-06,6.620844095773492e-06,3.6966379534735316e-05,0.028438619182600256,0.005612759576679845,0.0069192957428042354,0.04129188035308803,1.901755468597769e-05,4.8144286013214176e-06,5.681006451771319e-06,3.1718952689056526e-05,0.027639657399229463,0.00699717494235429,0.00825663838503636,0.046099564316453005,0.028438637439597965,0.005612747901574929,0.006919424222924346,0.0412918814346911,0.1085972850678733,-2.6325026325038546e-06,False,True,False
0,0.2934642989200063,0.0018072776688685343,0.2898767686121714,0.297632078171184,0.005085737249456516,0.004678820712905404,3.273202516346002e-05,0.014998397698367662,0.0036426492483921276,0.012630220904737574,7.948093968396241e-08,0.06667336874052449,-0.9281060910024734,0.0025701078420475223,-0.9326829359914919,-0.9244396034894811,-0.4395138496325601,37.19551207679398,-112.88,149.91,33.315636363636365,0.012003613578797971,33.29,33.34,1.5967954785785914e-05,2.3997298784995142e-06,7.172581103754615e-06,2.482816535915059e-05,0.034341146576438816,0.00216841605016596,0.02548737534062165,0.038545682623549446,1.370128232101872e-05,2.0590850237610768e-06,6.154423656085595e-06,2.1303774194142445e-05,0.01991311477927837,0.002992624738163837,0.00894469158378939,0.03096239394388635,0.0343411533260597,0.0021684135359209865,0.025487395414252795,0.03854568594184812,0.1537591859807801,-8.024705272426531e-06,False,True,False
0,0.2881786657434426,0.001908342344259446,0.28282862993742447,0.2926389497940905,0.0013811636049356547,0.0009428957042362439,0.00011165942783078273,0.00350431826683522,0.0010154170554275651,0.00420279445902896,5.3077270208319594e-08,0.026703490540949875,-0.9425399178919636,0.0057544801261132025,-0.9504937692330182,-0.9327873850502937,0.3342251131221719,17.377801139985948,-43.67,38.7,33.3090990990991,0.011564015467235086,33.29,33.33,1.582935972445393e-05,5.346234350042897e-07,1.434516220750923e-05,1.6552110239433728e-05,0.034515235546650154,0.00039095623674492117,0.03373332027592727,0.03579747987218636,1.358236101336955e-05,4.5873292583136845e-07,1.230884731217119e-05,1.4202516129428297e-05,0.019740277405853334,0.0006667114209522424,0.01788938316757878,0.020641595962590898,0.034515241860043795,0.00039095588884321665,0.03373332641782819,0.035797485659932134,0.15384615384615385,7.739557739560195e-05,False,True,False
0,0.28259818134923176,0.0023824430067565967,0.27700971302666866,0.28745230746633704,0.0038319370222786677,0.005098440999654308,3.8822068237676796e-05,0.020009251360644784,0.003821047646064081,0.0175366787420002,5.5911946322817485e-08,0.1386165723177426,-0.9641930520825226,0.008048683596290313,-0.9750481543784233,-0.950605418188835,-0.06981910684002222,45.64941092297159,-175.09,211.71,33.30309090909091,0.015309974834767669,33.27,33.34,1.9064885345917898e-05,6.698864602877407e-06,7.72431811173574e-06,3.64146425267542e-05,0.024347798302767978,0.016843641134120527,-0.01303758872407449,0.03992312570227185,1.6358599460389017e-05,5.747951843902025e-06,6.627840860399872e-06,3.124553548474225e-05,0.023775195711662957,0.00835393521070628,0.00963274478254242,0.045411511117699976,0.027516402861040033,0.010917220335653548,5.628924587130778e-05,0.03992312951506986,0.06783493499152063,0.00025426594233934695,False,True,False
0,0.27676989427065707,0.0032590621375535827,0.2710744175510262,0.2894255621796538,0.007243370348888068,0.0073734780535325995,0.00023669333626101527,0.028720681744147464,0.005306814468908595,0.029319353819163386,4.472420245260622e-08,0.2825077092515984,-0.9874693092478021,0.006628557945044785,-0.9943772941190456,-0.9751727605378364,-0.5462669683257911,48.33310042854326,-149.65,268.62,33.3754054054054,0.0201712569484293,33.34,33.41,1.90892266845053e-05,3.900947286249215e-06,6.069107087792367e-06,4.303548662252769e-05,0.03090067833171083,0.005760927303157847,-0.007525143046752195,0.04198060189244923,1.637948551352053e-05,3.3472026195796676e-06,5.2075892474570424e-06,3.6926541936513574e-05,0.023805550999843234,0.004864743926263053,0.00756858518628333,0.05366814950273634,0.03099159444518078,0.005249339551066673,0.0007301699533682611,0.041980603126273414,0.09502262443438915,0.00035802035802034136,False,True,False
0,0.274635873513944,0.002257518236845867,0.26722791848709077,0.2794565427822351,0.005265680210574608,0.005227522350364529,0.00015766126375895258,0.018449669203843194,0.004767032198916516,0.01898887035366339,7.462387969711659e-08,0.14343700453786362,-0.9931182472678673,0.008047871472126428,-1.0103538229436877,-0.9857206545395407,-0.13934954751131254,36.29944684233371,-131.81,144.83,33.48745454545455,0.022193327521773977,33.41,33.53,1.5454877592340047e-05,2.9674147575079727e-06,2.206948031924497e-06,2.813858740703734e-05,0.0336733956007034,0.003986060111283701,0.002783624803596171,0.043354703268130776,1.3261037119038594e-05,2.5461862775542013e-06,1.8936688172571063e-06,2.4144277420028106e-05,0.019273272972310553,0.0037005660058970677,0.00275221279501212,0.03509071313640453,0.03367340295238431,0.003986051931987102,0.0027838345113709068,0.04335470400568681,0.16289592760180996,0.000581205058269271,False,True,False
0,0.26968319780417893,0.0036758086932043425,0.2643594221954148,0.27884720803409047,0.007248492812471011,0.007703299449222072,3.106550661068157e-05,0.02700661492326499,0.004329773253109805,0.01953425416080955,3.296112582873434e-08,0.15277131656990273,-1.0120829519688976,0.006331026411981051,-1.0270100826510529,-1.0050662399229542,0.7857094403617861,23.319570557876116,-158.47,99.67,33.541531531531525,0.022164599055011797,33.5,33.57,2.1919856723860262e-05,3.953230869543477e-06,8.276055119716864e-06,3.531116851079195e-05,-0.001896109270884678,0.009324094106506411,-0.011660145645352088,0.03854100423929225,1.880830384597736e-05,3.3920644785390172e-06,7.101258064714148e-06,3.02987010761137e-05,0.027335537252154277,0.004929945075012384,0.010320797981295449,0.04403540472019392,0.006599203175065821,0.006851287756380138,5.5301715241986593e-05,0.03854100578207706,0.14019219898247595,0.0005180765180764945,False,True,False
0,0.2565501898229894,0.0034236371435264765,0.24969886342432657,0.2648908365096992,0.002000343223724762,0.0021995338976462417,9.861301158530645e-06,0.007595205536484675,0.0014294058308919684,0.007916344727943505,7.642636282861881e-08,0.06505025488785403,-1.0519655137179615,0.011825324942927602,-1.0666739743903921,-1.027452207895891,0.11682126696832579,18.156161659027752,-111.34,56.74,33.562,0.02471117564655542,33.53,33.63,1.1074684920381302e-05,2.4836923093170605e-06,8.827792127697988e-06,2.372469134318834e-05,0.0036521580768346233,0.0021926153238587985,-0.006857140066244304,0.007584625360879441,9.502618635014169e-06,2.1311288756145555e-06,7.574675269028425e-06,2.035693978551389e-05,0.013810877781305162,0.0030973315427888937,0.01100885118004848,0.029586287546380288,0.004208206041457083,0.0006573404859270724,2.2713204474387347e-05,0.007584645430245173,0.16289592760180996,0.0005352207921015634,False,True,False
0,0.2485302451669418,0.002362204135397746,0.24436175314355227,0.25421644746002886,0.00179150058775804,0.0019521808986519295,2.876579466344952e-05,0.00677285248557259,0.001372452725134104,0.006519266625811926,7.285721801732203e-08,0.04510859238001353,-1.0793111916950686,0.006333351694686281,-1.0881161131440016,-1.0669143602023377,0.056936122102882965,13.522900301920016,-33.19,19.8,33.74387387387387,0.06645806840914784,33.61,33.87,9.848880074595183e-06,4.1280266927868896e-07,8.827792127697988e-06,1.1034740159622484e-05,0.004091992401199464,0.0001958663729507765,0.003451627784104062,0.004827734181610122,8.450818420904168e-06,3.5420478016960163e-07,7.574675269028425e-06,9.468344086285531e-06,0.012282216602175126,0.0005147927236026698,0.01100885118004848,0.013761063975060599,0.004092013094388397,0.00019586473510626015,0.003451649910891657,0.004827750001361506,0.1537591859807801,0.002024570024570049,False,True,False
0,0.24884701204187296,0.008057490148785875,0.24018503048225429,0.28571947401934306,0.020997335894912532,0.02468375611224546,8.571661896913248e-06,0.08417774184207007,0.020975178370148947,0.09593013945919251,1.8636931331528217e-08,0.7397778054866521,-1.097236250202392,0.005294174977333197,-1.1047309632041982,-1.0882524581084616,1.5389819004524883,52.48817035110569,-382.5,215.13,33.978,0.07555057847731506,33.84,34.11,1.2833502667542848e-05,6.538428672539151e-06,-2.758685039905621e-06,4.855285670233894e-05,0.020085061255013685,0.01698502023175002,-0.008207849520639854,0.045424877929863404,1.1011769858721894e-05,5.610290007712678e-06,-2.3670860215713828e-06,4.166071397965634e-05,0.01600424193751109,0.00815386080303136,-0.0034402659937651497,0.06054868149026664,0.020139045256130986,0.016920914732592423,0.0007132891868950883,0.04542488025694753,0.14932126696832582,0.00233311543403288,False,True,False
0,0.25506716930274537,0.008414923142101608,0.24141974863912197,0.30061845762623796,0.05588274959585516,0.019629984123651786,0.025641237219011518,0.12049050866029096,0.039917511692464054,0.12334077238002943,1.85827384591164e-08,1.023633147472558,-1.1110212101343713,0.013951316410332239,-1.130108112260545,-1.0908675861987471,-0.680819672131148,81.3310947104804,-290.75,405.17,34.15126126126126,0.03009430985531104,34.11,34.21,1.1362041774526542e-05,8.225963407925171e-06,-2.758685039905621e-06,3.9725064574640946e-05,0.03769264489485962,0.00860795555697742,-0.0102753508199398,0.046799647646153124,9.749184800709255e-06,7.05827693817614e-06,-2.3670860215713828e-06,3.408603871062791e-05,0.014169231126863243,0.010258330243893887,-0.0034402659937651497,0.04953983031021816,0.03781119361967607,0.008070702047778693,6.813961342316204e-05,0.046799649475720004,0.1492368569813454,0.0008323095823095701,False,True,False
0,0.24920422995755406,0.0014402775832034562,0.24584324895271362,0.2529696538505275,0.0063242376129591035,0.006817135810442511,0.0005310398239690226,0.026571331067003278,0.0032101149176048714,0.014850163227829583,7.018592422525227e-08,0.1131021914004759,-1.081581120620489,0.006750833477741265,-1.1030537080070413,-1.0752905874917298,-0.9866346153846142,56.421422752125444,-268.19,237.69,34.196036036036034,0.028067427879670977,34.15,34.25,8.675502727305009e-06,3.0535744763167853e-06,-1.655211023943373e-06,1.4896899215490354e-05,0.040895190450851514,0.001373059091118436,0.03441268504677407,0.047486364163689815,7.4440035520005035e-06,2.6201155094399256e-06,-1.4202516129428298e-06,1.2782264516485466e-05,0.010818936043741081,0.003808012976596001,-0.00206415959625909,0.018577436366331808,0.040895192273539986,0.0013730582782006929,0.034412686774639115,0.047486365588368454,0.08597285067873305,-0.0007023517023517132,False,True,False
0,0.2470146246399418,0.0022376210910451805,0.23987123564448656,0.2538016624152614,0.004615705774948099,0.004124350151217334,0.00014902153482882096,0.015030578152626078,0.003523317800642454,0.01585339372529083,6.657357808081965e-08,0.12643121608441632,-1.0874277122759657,0.006803088412339579,-1.0953158141596973,-1.0752610347004952,0.2534106334841639,70.58007616543702,-467.8,320.78,34.136818181818185,0.01837088932647203,34.09,34.16,1.3868321625950885e-05,7.5712708301804385e-06,-3.310422047886746e-06,3.751811654271645e-05,0.03695607159268509,0.0053085882961317445,0.011047614935322416,0.04611025776618375,1.1899694886723104e-05,6.496518844450763e-06,-2.8405032258856597e-06,3.219236989337081e-05,0.017294730855534308,0.009441884517395617,-0.00412831919251818,0.04678761751520604,0.03695607876537416,0.00530857916854603,0.011047695404905146,0.046110259233380246,0.11312217194570137,0.00013051416721139255,False,True,False
0,0.24517079624727398,0.005955365660097351,0.23358517745542878,0.2594170376106268,0.020386491566389494,0.014427196688775571,0.00013296910255976367,0.053843523777714314,0.01696162455746274,0.04803248731001674,3.70693244988729e-08,0.34340946802872196,-1.1094419663344017,0.021599043864662416,-1.1472364626335771,-1.0882055782030826,-0.7907744488411543,67.52228889519739,-354.22,290.12,34.126576576576575,0.018265491332787803,34.09,34.16,1.9874390888170746e-05,8.880407125242274e-06,2.758685039905621e-06,4.4138960638489935e-05,0.029713103148440695,0.013106555242504429,-0.013722300219786663,0.05024592870539182,1.7053194611967767e-05,7.61982149754328e-06,2.3670860215713828e-06,3.7873376345142124e-05,0.024784703628837938,0.011074465624682521,0.0034402659937651497,0.055044255900242395,0.03011154626057024,0.01216219138078191,0.0006451159047597779,0.050245932539571894,0.10853589598643301,-0.00038346788346786556,False,True,False
0,0.23913332329089704,0.0035172067412381647,0.23179636121644084,0.2447506279673439,0.016604873214904642,0.0088913507743016,0.0012955222730311688,0.03746295342009617,0.012220084890058883,0.03954753715814694,3.686408789338458e-08,0.22679103743613138,-1.1263533922243802,0.011833662183029397,-1.144794176464368,-1.107331438713287,0.37444004524886876,53.36241128890007,-234.21,193.47,34.143818181818176,0.02196668946849096,34.09,34.18,2.2920178896030345e-05,8.907247626489307e-06,6.069107087792367e-06,4.6345908670414436e-05,0.022061033283319736,0.01711991105961353,-0.024050449947771998,0.047486364163689815,1.966662895252622e-05,7.642851953863875e-06,5.2075892474570424e-06,3.976704516239923e-05,0.028583006354985882,0.011107937536974088,0.00756858518628333,0.05779646869525452,0.024262152969160407,0.013820783449823298,5.9251837759271344e-05,0.047486365588368454,0.08144796380090498,0.0005150237810787863,False,True,False
0,0.23774573913141694,0.003078746005957947,0.2277398369691548,0.24265097094516588,0.011730562257315695,0.007879650203043419,0.001607844652121634,0.030855778893148958,0.008387563440597687,0.03955416066525289,4.5928773992343075e-08,0.2857978163553254,-1.1264714369570648,0.01084234235556238,-1.1392925358062373,-1.108746753710863,0.31224985867721894,49.83070101680966,-136.14,240.08,34.21018018018018,0.035521619076070966,34.16,34.27,2.1313881162552176e-05,5.526293522057771e-06,5.517370079811242e-06,4.138027559858432e-05,0.029503261310094113,0.008573784641643642,-0.00890459114729911,0.042670660113026775,1.8288347323272866e-05,4.74182879086877e-06,4.7341720431427655e-06,3.550629032357074e-05,0.026579844925388237,0.006891660120848887,0.006880531987530299,0.05160398990647725,0.029794371867289705,0.007498595293162978,0.0006420699084039936,0.04267066190286733,0.08140192198982475,0.0009452439452439753,False,True,False
0,0.23279025050643776,0.002662683077139975,0.22601728834858903,0.23680271973429212,0.0050184631842696645,0.004628699221252149,5.093966680592472e-05,0.016058611493131335,0.004102710195158555,0.02013218814667948,5.839642500116149e-08,0.16916301418094074,-1.1366500138804398,0.009346742998477282,-1.1479508459840924,-1.1210219833760176,-0.6813970588235297,48.71112132362722,-184.3,224.26,34.26672727272727,0.020005003544256356,34.23,34.31,2.0540969083333463e-05,3.304605030489971e-06,1.1586477167603609e-05,4.303548662252769e-05,0.03145661547850581,0.0038832770161083756,0.00554519436712269,0.03854969266719848,1.7625151143876875e-05,2.8355119418615827e-06,9.941761290599808e-06,3.6926541936513574e-05,0.02561597152054408,0.004121064980150411,0.01444911717381363,0.05366814950273634,0.03145662884325283,0.0038832655046445617,0.005545371696963781,0.03854969804173459,0.0995475113122172,0.0001812321078376065,False,True,False
0,0.22988680277444887,0.0016395433774601747,0.2235312648932982,0.23332403258128995,0.0025651363564138676,0.004514004799615745,8.861347044600518e-06,0.015620157448768627,0.0025673981436503406,0.015156602971796794,4.5441705899453705e-08,0.1131375424993622,-1.1441869541463474,0.0055200644122364384,-1.1544998618147657,-1.1382686323436835,0.10699265121537566,51.16873854622836,-293.39,237.0,34.2681981981982,0.01898315991505044,34.23,34.31,1.900684061544025e-05,3.4797317682588215e-06,7.72431811173574e-06,3.917332756665982e-05,0.03321147213955864,0.004935430190195115,-0.010967414062341859,0.043363391696037,1.6308794256767717e-05,2.9857792057860725e-06,6.627840860399872e-06,3.3612621506313634e-05,0.023702810024463825,0.004339459813859232,0.00963274478254242,0.04885177711146513,0.033349371142157525,0.003894875011850628,5.9251837759271344e-05,0.043363395206343955,0.10401356698699829,-0.0004878904878904928,False,True,False
0,0.23040206591298926,0.004670942433503485,0.22515534110007257,0.25552579665672714,0.027578062025405036,0.02337778234800482,0.00013415535003746235,0.0853716809912512,0.02173379580494836,0.06505472843059876,3.0100079539963076e-08,0.5389115544250119,-1.1675083844056962,0.016034838985706564,-1.188796270069992,-1.1478457142116325,0.43010180995475106,45.92721369360429,-162.69,184.31,34.24272727272727,0.014520412137421673,34.21,34.27,1.780038401314668e-05,3.565000122152378e-06,7.72431811173574e-06,4.193201260656545e-05,0.0344039853799337,0.0038768924098736644,0.006235252587700233,0.04199129534217997,1.5273595777198152e-05,3.05894360319432e-06,6.627840860399872e-06,3.5979707527885024e-05,0.022198277407733502,0.004445795192491065,0.00963274478254242,0.05229204310523028,0.03440399472593064,0.0038768832554085344,0.0062354261861023545,0.04199130100625608,0.11764705882352942,4.183666568987785e-05,False,True,False
0,0.22771940229868654,0.014699138130340938,0.21193524307692296,0.3269400599473743,0.16814086792072575,0.15791801564947675,0.0005411530243674465,0.5351674264002065,0.1445018810819404,0.2914504274404157,9.214348395403249e-09,2.3838142091926375,-1.3169843712126539,0.14179503430798496,-1.5148998917142529,-1.154511456631601,1.1591233031674206,54.99380594200633,-244.39,219.08,34.25153153153153,0.030006005404925377,34.21,34.34,1.750391899188985e-05,6.74690902914568e-06,1.655211023943373e-06,3.917332756665982e-05,0.029252567358286154,0.013177764437064315,-0.00477560361417276,0.05508235131490816,1.5019214360852812e-05,5.789176299825391e-06,1.4202516129428298e-06,3.3612621506313634e-05,0.021828565564512133,0.008413849845211402,0.00206415959625909,0.04885177711146513,0.029417033131548635,0.01280601492538677,5.925183775927135e-06,0.0550823669026445,0.0904977375565611,0.0006053878553878724,False,True,False
0,0.22144085986196835,0.002184017884545858,0.21677746583769752,0.22600831634485605,0.040889553553901184,0.06191880072749494,0.0001065286721047981,0.23634618334364463,0.01505160402938659,0.044760634306993285,5.9243309376288966e-08,0.3059250881606168,-1.2117787455800832,0.05746826565443387,-1.392531357883985,-1.1720562508245702,-1.0510853589598637,36.49483399346365,-122.77,136.14,34.35236363636364,0.01837066232779614,34.33,34.39,9.201227684512332e-06,9.677351467591957e-07,5.517370079811242e-06,1.1586477167603609e-05,0.004020513429384606,0.0004858284515455595,0.001384794825412287,0.00551511903975498,7.89510115081854e-06,8.303638528287344e-07,4.7341720431427655e-06,9.941761290599808e-06,0.011474550463724259,0.0012068308879801975,0.006880531987530299,0.01444911717381363,0.00402053214355624,0.0004858265329404485,0.001384827076330787,0.005515131306531802,0.1492368569813454,-2.452494195612512e-05,False,True,False
0,0.21549603861899516,0.002496591033773186,0.21020671356903733,0.22079008102976017,0.004516913105860703,0.004169490467604185,0.0002478135190418824,0.017068350215475512,0.003475585165955233,0.01444747935989961,5.5330022862010164e-08,0.10111379954629701,-1.1957226459111756,0.006207169009912792,-1.2053040077560317,-1.1868074389222638,-0.7013122171945706,53.00884458323542,-221.08,189.24,34.40972972972973,0.02731830752974907,34.34,34.45,1.6696285860297575e-05,4.794519839630836e-06,3.86215905586787e-06,4.08285385906032e-05,0.02802881576553956,0.012218872241947874,-0.0013346692797994387,0.050936655266577535,1.4326225828745716e-05,4.113931358008557e-06,3.313920430199936e-06,3.5032873119256466e-05,0.02082139266950487,0.005979089066752835,0.00481637239127121,0.05091593670772422,0.02803486326396681,0.012204996286421058,0.0007252069751572223,0.05093666025242302,0.0995475113122172,0.0006920849420849503,False,True,False
0,0.2138080347627783,0.0026618753382484602,0.2068675791614623,0.21910945117263378,0.011393602903963653,0.006622935026464309,0.0014474195474199099,0.028675800738857435,0.008450902025303256,0.027802212698720036,4.583202756203164e-08,0.16928209858325433,-1.20839028184885,0.005426372835203996,-1.2143557750727318,-1.1948955189449688,0.8319559072922552,62.906517028315925,-190.31,263.65,34.463090909090916,0.028726660396130477,34.41,34.53,2.1587646642591773e-05,6.150047265872983e-06,7.172581103754615e-06,4.027680158262207e-05,0.028239444472121334,0.01125363642515487,-0.01785061941230484,0.04473816141232671,1.8523251428531897e-05,5.277039859377814e-06,6.154423656085595e-06,3.455945591494219e-05,0.026921248912296157,0.007669523038249775,0.00894469158378939,0.050227883508971186,0.028829421096591083,0.009640424330346259,5.431418461266541e-05,0.04473816427131969,0.07235726399095534,0.0007869621080630286,False,True,False
0,0.21455698186431185,0.001586888406119972,0.21047597933116186,0.21864993128673035,0.0031564326784799964,0.0032689916179069927,0.00017827459485206343,0.013704025286998685,0.0027125321592943227,0.012609032409222865,5.580687735540213e-08,0.1121032092298086,-1.1973746787280979,0.0019999808385448986,-1.201533282702457,-1.1936623511495066,-0.685503393665158,62.6453224925336,-266.19,224.92,34.498648648648654,0.015164940816746793,34.47,34.53,2.0701996400142435e-05,3.495541793537758e-06,1.1034740159622484e-05,3.8621590558678696e-05,0.03278310312845159,0.004625793080968016,0.002796991615759598,0.04198995866096363,1.7763320418439187e-05,2.999344976904237e-06,9.468344086285531e-06,3.313920430199936e-05,0.025816783426967478,0.004359175979909691,0.013761063975060599,0.0481637239127121,0.03278311775123174,0.0046257721460848875,0.0027974157188028173,0.04198996359516038,0.13122171945701358,-1.6848016848009253e-05,False,True,False
0,0.21131683217449715,0.002347957501392162,0.20445891206583308,0.2174326834699265,0.006664450870411935,0.006448177357241028,0.00018082789630230684,0.025679342047689402,0.006665881000500633,0.028692590547249194,4.9262615764433804e-08,0.23467819651584218,-1.2121763024207086,0.004863152723951067,-1.2180437565182567,-1.201796858653492,-0.03964366515837138,53.726478337215134,-191.36,277.3,34.50236363636364,0.02200614062455385,34.47,34.57,1.872909970078911e-05,4.008560939453575e-06,1.1034740159622484e-05,4.193201260656545e-05,0.033993368127314474,0.005721410691157538,-0.0034001655572748713,0.042679348540933,1.607047903513893e-05,3.439540371278567e-06,9.468344086285531e-06,3.5979707527885024e-05,0.023356448402919595,0.004998945397699047,0.013761063975060599,0.05229204310523028,0.034013273150888104,0.00560178284904789,6.517702153519847e-05,0.04267935411369598,0.11764705882352942,0.00043892432883257715,False,True,False
0,0.21265909074357142,0.0022644351207480587,0.2073431334949841,0.21876171650841258,0.005136817925468744,0.006038922091524126,0.00022174653860638835,0.02549200619167456,0.0028026884433636472,0.013577722079248122,6.590940529460632e-08,0.11248849967080847,-1.2060094604101559,0.0025217157536864088,-1.2109949320859514,-1.2022859627111888,-0.49379875635952475,49.88194975152612,-173.21,207.84,34.575765765765766,0.016924943912869046,34.55,34.61,1.8139367213806543e-05,2.027854499689059e-06,7.172581103754615e-06,3.531116851079195e-05,0.035590824724617484,0.0019910679122979442,0.018612190077956715,0.044055454938439056,1.556445986070982e-05,1.739997850627711e-06,6.154423656085595e-06,3.02987010761137e-05,0.022621012283523343,0.002528871101509502,0.00894469158378939,0.04403540472019392,0.03559083302468189,0.001991064796985145,0.018612228471185124,0.044055460337132465,0.054267947993216506,0.0003116883116883263,False,True,False
0,0.21385232120248196,0.0026968578564598973,0.20702647527386775,0.21905441315749646,0.009680568311757893,0.007268517315185965,0.001049331526772344,0.02693380175018663,0.006975895663872597,0.027376815219754606,4.731375612132549e-08,0.17825798853547292,-1.2064641577569861,0.003072767056080596,-1.210229365875827,-1.198252334151214,2.3875113122171947,64.55794474750965,-220.79,167.0,34.650363636363636,0.022500857179482504,34.59,34.71,1.987189434062332e-05,5.818297021295727e-06,7.72431811173574e-06,3.9725064574640946e-05,0.03215397663025865,0.006920292992174815,-0.00959197600544397,0.045430892995336945,1.705105245267223e-05,4.992382004192369e-06,6.627840860399872e-06,3.408603871062791e-05,0.02478159026594765,0.007255808145707547,0.00963274478254242,0.04953983031021816,0.03224519977175019,0.006481500751467284,0.0013341441857433734,0.04543089788738339,0.12217194570135748,0.0005308928611680579,False,True,False
0,0.21629632370144952,0.002019789358034491,0.21064336692276808,0.22005124346678143,0.004103371433977521,0.002135819083483394,0.0005360500237212154,0.0075643209777521096,0.003007295169874129,0.01075433234218535,4.8446860804324254e-08,0.055699510790389636,-1.1926333101254993,0.00540482664979654,-1.198341910876566,-1.1847674998146687,-1.385749010740531,55.569199860132414,-352.12,186.83,34.72117117117117,0.02126622327194553,34.66,34.75,1.8867658089671256e-05,8.4185449009035e-07,1.3241688191546983e-05,2.1517743311263846e-05,0.034985920389786346,0.0008446121689198721,0.03167584408574989,0.03923640918473516,1.618936887604138e-05,7.22352123154351e-07,1.1362012903542639e-05,1.8463270968256787e-05,0.023529240043330426,0.0010498492332620232,0.01651327677007272,0.02683407475136817,0.034985929263413144,0.0008446112261339707,0.03167585613291289,0.03923641373779426,0.08140192198982475,-0.0001995436995437207,False,True,False
0,0.21650131200615869,0.001151022625496394,0.21359300964524994,0.21900956302279673,0.001292398334694842,0.0018725474235785516,3.939811474815689e-06,0.007011741903163818,0.001066590864839052,0.0060934334426381576,4.156421495871143e-08,0.05475624762401248,-1.189154221169151,0.0024934640856528224,-1.1968497620777019,-1.185053102179388,-0.024649321266968158,25.03676210940215,-69.84,51.04,34.664545454545454,0.019042991613924788,34.63,34.71,1.930892286867878e-05,2.7128144189282224e-06,1.82073212633771e-05,3.531116851079195e-05,0.03397850367533476,0.004919608508574634,0.0034810347708635996,0.035801489915835386,1.6567995531528026e-05,2.327726796380487e-06,1.5622767742371126e-05,3.02987010761137e-05,0.024079526934188338,0.0033830622408253666,0.022705755558849988,0.04403540472019392,0.03397851702151106,0.004919583389666084,0.0034813172455665613,0.03580149844885127,0.15384615384615385,-0.00045695737438857366,False,True,False
0,0.21421653908395788,0.0017776465561674542,0.2097236889926234,0.21928589250309527,0.004635451129633168,0.005102903850319343,1.7420151147896736e-05,0.01775865022938397,0.00419449539764799,0.017762480047781404,6.277943907784245e-08,0.13197362608690097,-1.1998833382552938,0.00208091447717165,-1.2025065838633617,-1.196524179190024,1.4157829282080272,57.966391142762625,-206.68,323.66,34.685315315315314,0.029071067148059328,34.63,34.73,1.7957325172755148e-05,6.239468728360475e-06,8.827792127697988e-06,3.8621590558678696e-05,0.033697486086853405,0.008298354392628616,-0.006837758188607336,0.0406105105604167,1.540825893002082e-05,5.353767826079608e-06,7.574675269028425e-06,3.313920430199936e-05,0.022393993600996923,0.007781037622937191,0.01100885118004848,0.0481637239127121,0.03373421968047725,0.008147607183064069,0.0006438946916655845,0.04061051400283052,0.1492368569813454,0.0006166198666198715,False,True,False
0,0.21526742797719342,0.0022267487052601777,0.20975513662894887,0.22162050440286474,0.00612420602715946,0.005314154574492516,0.00043478935520233113,0.0197096134336704,0.004032981716889215,0.021095768391352833,6.241278352296653e-08,0.16635295466722305,-1.1981124327454655,0.0032783852778340314,-1.2022097318853295,-1.1897868251413757,-1.210797511312217,80.82996563901301,-258.4,254.9,34.718828828828826,0.019620895111576695,34.68,34.75,1.7545112026422378e-05,3.0008985808143035e-06,1.1034740159622484e-05,3.751811654271645e-05,0.03495941143491212,0.003334238473608139,0.012422384651612132,0.04405344991661455,1.505455998922922e-05,2.574917027513208e-06,9.468344086285531e-06,3.219236989337081e-05,0.02187993605220184,0.0037423225881076817,0.013761063975060599,0.04678761751520604,0.034959419876198036,0.0033342324509916593,0.012422451365428841,0.044053454289755295,0.13574660633484165,0.00026158301158300866,False,True,False
0,0.2208296619553201,0.0029677381491499256,0.2137994711511519,0.23113363797701234,0.012117163860943862,0.01195974990775111,0.00031852657873683316,0.03602692623807019,0.011195512347713862,0.043152932349538355,7.207981601170532e-08,0.35613150649973324,-1.1848089110280289,0.009091451119696592,-1.2034670117003894,-1.1724614053275884,-0.09660067873303146,46.31350175921651,-292.89,198.73,34.76236363636364,0.013540782621215433,34.75,34.79,2.4489259029587522e-05,6.8040306276883e-06,8.827792127697988e-06,4.193201260656545e-05,0.026195144867560437,0.007074246482863047,0.006917290720979721,0.04130123712160243,2.101297606977293e-05,5.838189411320235e-06,7.574675269028425e-06,3.5979707527885024e-05,0.030539754931530133,0.00848508432473082,0.01100885118004848,0.05229204310523028,0.02619517106306458,0.007074228734132451,0.006917406287382394,0.041301241786158474,0.16742081447963802,-1.009850551134754e-05,False,True,False
0,0.2695418734428656,0.02552304782327626,0.21874110773111394,0.2931861728692016,0.029631118323599836,0.028102215364731974,0.002240343448513043,0.1020153380592691,0.022089652788704995,0.089612678990735,6.559452135623811e-08,0.7347916305961518,-1.0350237360939194,0.08631196977842048,-1.2015470319077786,-0.9579729153362766,0.02519502543810094,72.67886261037714,-456.32,257.8,34.74243243243243,0.014536237866182702,34.71,34.77,2.7726032924825205e-05,5.124769925803369e-06,1.6552110239433728e-05,4.965633071830118e-05,0.007774184113615019,0.016218894948525464,-0.03437458963210831,0.03443139858380286,2.3790285596440168e-05,4.397302004274319e-06,1.4202516129428297e-05,4.260754838828489e-05,0.0345762299187849,0.006390933160755041,0.020641595962590898,0.0619247878877727,0.015045333823055482,0.009845907495493886,5.5301715241986593e-05,0.034431412775294,0.06783493499152063,-0.0001560196560196667,False,True,False
0,0.9375360132736563,0.0187473956209151,0.9093899738751362,0.9764541486473558,0.09097942508290797,0.04271479009954823,0.036433867845530835,0.17895278651276103,0.07529216347226683,0.14543014583810776,6.354773751660048e-08,0.6746451137067508,1.2010064775145417,0.05888792370017835,1.0825554406569071,1.29422257532815,0.1677275296777841,52.23115533465767,-272.76,360.67,33.66774774774775,0.01133656070056677,33.65,33.68,3.285048379836088e-05,1.170679530571451e-06,2.482816535915059e-05,3.8069853550697574e-05,0.0012526326121142341,0.007869658125301677,-0.015099074957900896,0.015862650645377282,2.818731383834144e-05,1.0045000108639566e-06,2.1303774194142445e-05,3.2665787097685084e-05,0.04096676519987955,0.001459916199335209,0.03096239394388635,0.04747567071395907,0.0060407769070562195,0.005193456998826982,5.9251837759271344e-05,0.01586270289046367,0.18089315997738833,-0.00025342225342228175,False,False,True
0,0.9095178151221551,0.01099003435913043,0.8756010903746717,0.9251355182221469,0.14286002555755337,0.03323692547902486,0.08086119897773952,0.22368046418820678,0.11144244416387555,0.23176353296438715,2.547178201695033e-08,1.0671215478323766,1.0529168826285402,0.02255421229048217,1.017881512407551,1.085442464478132,-0.7965950226244354,74.81961388879664,-437.17,300.96,33.61054054054055,0.024747372232873974,33.57,33.66,3.287079328318313e-05,1.8087543532833669e-06,1.3241688191546983e-05,4.6345908670414436e-05,0.005594057073271009,0.006851662305431509,-0.02197893860482302,0.026162061727211253,2.820474036472363e-05,1.5519992620324356e-06,1.1362012903542639e-05,3.976704516239923e-05,0.04099209249494013,0.002255638466393513,0.01651327677007272,0.05779646869525452,0.007690815415314306,0.0043658271701716884,5.628924587130778e-05,0.02616206754551435,0.14027149321266968,-0.0006680414180414119,False,False,True
0,0.9428338544433945,0.01569645804946084,0.8974344602637183,0.9812966911553841,0.1437961799625996,0.06269134591330641,0.025123622767608014,0.2766013905508151,0.10260590162732319,0.20750898698176531,3.7731205937419077e-08,0.8876135024039922,1.1663383669990237,0.0555817178514959,1.0531706714732798,1.2389286183274655,0.4537782805429867,45.73805849863063,-334.39,258.3,33.52672727272727,0.02640923840680823,33.49,33.57,3.382010548809184e-05,7.372822978453051e-07,2.5931639375112838e-05,3.9725064574640946e-05,-0.003014798060825132,0.003938193956407181,-0.02060283220731696,0.011728316387385562,2.901929643685261e-05,6.326240929777748e-07,2.2250608602771e-05,3.408603871062791e-05,0.042175948733971076,0.000919440668431292,0.03233850034139241,0.04953983031021816,0.004160424170010932,0.0026985050513254143,5.9251837759271344e-05,0.02060287535668894,0.16742081447963802,-0.0007252890922615415,False,False,True
0,0.9533136752533435,0.013057630345009084,0.9246161115976591,0.9811256032062303,0.10455436926143939,0.03914139907859763,0.026205739017171544,0.17912034222023807,0.07802437522748376,0.16880683292016205,4.334829872831847e-08,0.8959064506173866,1.2420322229130898,0.03544994052887617,1.1839082515065928,1.330212873583497,0.2675127190503114,42.365113446820494,-253.51,234.67,33.465495495495496,0.020921443490036523,33.43,33.5,3.3672809182793706e-05,7.718726725606417e-07,2.7035113391075092e-05,3.917332756665982e-05,-0.0056006243669802155,0.004083065818744093,-0.02060149552610062,0.00967351355964087,2.8892909038415767e-05,6.623043178984101e-07,2.3197443011399553e-05,3.3612621506313634e-05,0.041992260323444254,0.0009625771947557466,0.03371460673889847,0.04885177711146513,0.006329224599071725,0.0028233780936273087,6.122689901791373e-05,0.020601541705591232,0.1492368569813454,-0.0005345735345735211,False,False,True
0,0.9793037847786953,0.013344542715905239,0.958495374088323,1.0156936030456938,0.08296036178982956,0.05809383487941125,0.009384557715275433,0.23004300458993432,0.059975001532905865,0.17826021682044133,7.758173126148904e-08,1.1987292157694691,1.3528000154488904,0.026819055956465658,1.318809907215847,1.4273339618220988,-0.3404581447963796,43.15267205325886,-167.07,192.6,33.386,0.03354307103827632,33.33,33.43,3.405914991575787e-05,7.233969034662557e-07,2.6483376383093966e-05,4.08285385906032e-05,-0.0036846598590982425,0.002368536164750486,-0.01165613560170306,0.005536505939216463,2.9224408189400534e-05,6.20709748838011e-07,2.2724025807085277e-05,3.5032873119256466e-05,0.04247405323071589,0.0009021246467030938,0.03302655354014544,0.05091593670772422,0.0037402313744019466,0.002280109888452715,5.5301715241986593e-05,0.011656219964191106,0.06787330316742082,-0.0009784730518675262,False,False,True
0,1.013256157993676,0.01864908816385444,0.9791357610202214,1.0599524378376235,0.11193769029323541,0.08783357213896097,0.006681208000929826,0.28414167579410377,0.10144331664957892,0.22230417733771388,5.397644775584354e-08,1.3067084409618217,1.4405677923124898,0.04582896645039584,1.3232235456791566,1.480540225552827,0.18409836065573745,37.41276195977311,-202.44,152.11,33.31594594594595,0.01800900675562978,33.27,33.34,3.3937748591489785e-05,2.2779822323115184e-06,1.3793425199528107e-05,7.007060001360278e-05,-0.002592151103377956,0.0036990107190016715,-0.01509640159546821,0.03168787421669697,2.912023994492235e-05,1.9546196182210943e-06,1.1835430107856916e-05,6.012398494791312e-05,0.04232265760510587,0.0028407972258009746,0.01720132996882575,0.0873827562416348,0.003733979627092425,0.0025403077765858754,3.55511026555628e-05,0.03168790037012621,0.19446014697569247,-0.0004773604773604782,False,False,True
0,1.0441260415742433,0.02432769058952212,1.0096320031742325,1.1025463500891037,0.23228224175895776,0.09769646411653812,0.10858665472806267,0.5400673816604757,0.1769255229598882,0.2890838992607807,2.4939852849570343e-08,1.301026441200836,1.4265013194790739,0.07704559526042709,1.312047002549978,1.5608201380213944,0.006170814479638699,53.00834127576889,-224.92,297.08,33.22609090909091,0.025417448841061847,33.18,33.29,3.361726099986347e-05,9.622249163583598e-07,2.7035113391075092e-05,3.751811654271645e-05,-0.003824518125758172,0.006024033103251927,-0.029550197153539036,0.0069206324240205785,2.884524599409001e-05,8.256358069776205e-07,2.3197443011399553e-05,3.219236989337081e-05,0.0419229879991354,0.0011999592596530814,0.03371460673889847,0.04678761751520604,0.005589596138664456,0.004433449709804791,6.023936838859253e-05,0.029550223231451164,0.09502262443438915,-0.0006123571444672242,False,False,True
0,1.0313301651351976,0.025577858539034236,0.9794804347994074,1.0774910848246835,0.16837675615753378,0.05285195729913474,0.057849296920389516,0.2666322020115517,0.12485221611311952,0.25423147262355095,5.5146671229522326e-08,1.24562113956565,1.4462999535521524,0.07915699920095919,1.3603843468451235,1.5754424131038631,0.04527416619558991,81.24760711788606,-462.43,389.23,33.155495495495494,0.024223907752418214,33.09,33.21,3.3309561514643236e-05,2.86784471800082e-06,1.3793425199528107e-05,5.8484122845999165e-05,0.00049334347465131,0.008180759801126413,-0.05568552525642344,0.023423884084970727,2.8581224860914735e-05,2.460750337867243e-06,1.1835430107856916e-05,5.0182223657313313e-05,0.04153926602290776,0.0035763954623376517,0.01720132996882575,0.07293363906782117,0.006403733055375543,0.005110401034076718,6.023936838859253e-05,0.055685548510523736,0.13566986998304126,-0.0005033345033344948,False,False,True
0,1.041965296047465,0.019413292861181323,0.9860293067131423,1.0933571633616221,0.28917696228269174,0.11202002602710627,0.12109365930061367,0.5416243865839914,0.22973225070817765,0.4584584617196926,3.729937247953785e-08,2.3120514365172258,1.3621078531456232,0.11774046725517583,1.2061636403259968,1.612106169705318,-0.36095588235294146,68.65879581548336,-268.1,248.67,33.114363636363635,0.01903773523301314,33.09,33.15,3.2541249006922916e-05,3.117538919259044e-06,8.827792127697988e-06,4.744938268637668e-05,-0.0007023402214737573,0.012565948855722663,-0.06052996795323784,0.021363066191752496,2.7921975337712388e-05,2.6750001144513775e-06,7.574675269028425e-06,4.071387957102778e-05,0.040581128593422486,0.003887780943827198,0.01100885118004848,0.059172575092760575,0.009596043082684122,0.008136979803148463,5.33266539833442e-05,0.0605299713761163,0.0904977375565611,-0.00040249757680948487,False,False,True
0,1.0547812463139603,0.016791070745940738,1.0294502111793413,1.0959115353861226,0.15340647575212848,0.05196686148973325,0.06452969390532234,0.286573381402637,0.11152284404264821,0.2519487468756835,5.7704155231874665e-08,1.3657505056558863,1.54188292703951,0.05512469309799602,1.4500001392676203,1.613392506227729,0.4622115384615385,84.57186886362366,-367.4,314.81,33.11036036036036,0.021571358448728272,33.07,33.15,3.108201696545248e-05,6.583165207413373e-06,-2.0966006303282724e-05,7.007060001360278e-05,0.0026412005793165346,0.01613160517283403,-0.0488130133561912,0.08746763549887256,2.6669883229469425e-05,5.648676131834312e-06,-1.7989853763942512e-05,6.012398494791312e-05,0.03876136798405078,0.008209650274239696,-0.02614602155261514,0.0873827562416348,0.012883603106671665,0.010051819274509268,4.8389000836738265e-05,0.08746768422992678,0.06787330316742082,-0.00038961038961039357,False,False,True
0,1.0873204321429368,0.03462738683128896,1.0339730687788613,1.1705123038059917,0.16788123835283103,0.07495988695267432,0.07071913334671465,0.3994924541759054,0.13497881215688348,0.29195935446960364,4.265891995203219e-08,1.360731036302501,1.6394903826436982,0.07053393505718296,1.5621633308590503,1.7477000367826574,-0.11968343697003882,59.25713306635432,-215.93,274.06,33.05163636363636,0.015711111753377253,33.0,33.07,3.2258847164943836e-05,3.4339000577323014e-06,1.3793425199528107e-05,7.007060001360278e-05,0.006734572614791312,0.009237450820046166,-0.03573599253623459,0.04613097632503706,2.767966081360218e-05,2.946453367655692e-06,1.1835430107856916e-05,6.012398494791312e-05,0.04022895448166868,0.004282304584871631,0.01720132996882575,0.0873827562416348,0.009285301406516183,0.006665114303487885,5.5301715241986593e-05,0.04613098897965047,0.10853589598643301,-0.00026914320492303455,False,False,True
0,1.1285622813455374,0.015122035345706886,1.0922502765345756,1.1610199828547227,0.1729509465027942,0.05058443481835962,0.0700617533892437,0.3005205308666963,0.12576901878302235,0.2811886797530345,5.293459137689638e-08,1.5102454184728384,1.7760455874032208,0.017811381161474644,1.7479809223628167,1.8020826502056893,0.14036199095022617,34.66673658819561,-193.32,218.83,33.012882882882884,0.02476755162367863,32.97,33.05,3.360914722033434e-05,7.728683816684336e-07,2.1517743311263846e-05,4.138027559858432e-05,0.005036102831455162,0.0026115832351598523,-0.017845941028047645,0.016550035503522142,2.88382839763795e-05,6.631586847712178e-07,1.8463270968256787e-05,3.550629032357074e-05,0.04191286956974198,0.0009638189110566902,0.02683407475136817,0.05160398990647725,0.005467567413527662,0.0015117001428307793,0.0014196428782362704,0.017846003593180462,0.14479638009049775,-0.0005940680940680692,False,False,True
0,1.166111433460807,0.032082727974120075,1.1090957247029023,1.2366116684644446,0.1548270817005093,0.05470727983760641,0.08110676446617515,0.2907467038049532,0.12360952149383514,0.3018738304447721,3.708892881704173e-08,1.6844767571313959,1.9235512280592864,0.06898034081537276,1.8027950619704267,2.0001821073090107,0.5312097230073483,57.58330480738551,-403.25,231.05,32.977636363636364,0.012845394900189006,32.95,33.0,3.265296950967022e-05,1.6298858181549188e-06,1.2689951183565858e-05,3.9725064574640946e-05,0.01214897878031373,0.003426677189161279,0.004856472827761489,0.03028971257912126,2.801783696618779e-05,1.398521353870805e-06,1.088859569922836e-05,3.408603871062791e-05,0.040720451582762746,0.002032577359432916,0.01582522357131969,0.04953983031021816,0.01214906298707313,0.003426649399441972,0.004856668720641425,0.03028971719448952,0.18089315997738833,0.0001215427270473218,False,False,True
0,1.1581249540456358,0.016766046124732262,1.126252403684097,1.207369607000162,0.13997630999467575,0.07260056678391308,0.029686838398150048,0.28126628099374545,0.10593610341782456,0.24872471243639394,5.967735794421003e-08,1.0406774346722154,1.9104316207968546,0.028166065355485787,1.8424473680576992,1.9523003895355544,-0.5992364253393667,32.62059146248416,-180.98,122.49,32.97072072072072,0.012628374379778096,32.95,32.99,3.2937575930076775e-05,1.0494057607608592e-06,2.869032441501846e-05,3.8621590558678696e-05,0.012276971413699279,0.002649603389879662,0.0048578095089778315,0.022741177611083067,2.8262043125879317e-05,9.004412143179982e-07,2.461769462434238e-05,3.313920430199936e-05,0.041075374952255266,0.0013086796427222234,0.03577876633515756,0.0481637239127121,0.01227705147239972,0.0026495882333894927,0.004858018621202986,0.022741210253653492,0.1719457013574661,-9.477009477023803e-06,False,False,True
0,1.1434967199806838,0.013403943864559219,1.1250564388483544,1.1826140529814901,0.1159969112168386,0.04075709669242004,0.050761709573572414,0.21630571269548754,0.08151602159912084,0.17677689581215217,6.336352553759639e-08,0.9926505735737843,1.884676478168682,0.025765046209018313,1.8353318603582731,1.9164089771464143,-0.14539592760181005,26.6780926842899,-80.6,104.35,32.96327272727273,0.01334847624943733,32.93,32.99,3.3176620357742805e-05,1.8823589249271504e-07,3.3104220478867456e-05,3.420769449482971e-05,0.011101966486477394,0.0003562074048926964,0.00967351355964087,0.01173700481529179,2.846715487842725e-05,1.6151555666273767e-07,2.8405032258856593e-05,2.935186666748515e-05,0.04137347944900007,0.00023474283232089552,0.041283191925181796,0.04265929832268786,0.011102052658331104,0.0003562042669279163,0.009673615212363654,0.011737085872117225,0.12669683257918554,-0.00012235421409731927,False,False,True
0,1.121713150810346,0.00892406539698064,1.101749495083952,1.1421353239727785,0.06318089126914249,0.027221321726795415,0.01335316502132862,0.13915569753129478,0.049153509926280044,0.10731457895744664,5.7683359422355807e-08,0.5110289360216174,1.8622300980164088,0.008328413364222973,1.8521093051337987,1.8797909693267327,0.1714414923685697,21.954047800637795,-56.79,68.98,32.95648648648649,0.01431138444790389,32.93,32.99,3.310172675227771e-05,3.702987938270693e-08,3.255248347088633e-05,3.3104220478867456e-05,0.011552743480300942,0.00030484798375331684,0.011048951616538759,0.01173700481529179,2.8402892520080036e-05,3.17734386489723e-08,2.7931615054542318e-05,2.8405032258856593e-05,0.041280082080215684,4.6178752902473044e-05,0.04059513872642877,0.041283191925181796,0.011552825876773797,0.0003048457400554068,0.011049037720991162,0.011737085872117225,0.14471452798191067,-0.00018146718146717328,False,False,True
0,1.1077695081848475,0.008939469113061238,1.08857037526579,1.1281326395287126,0.05115448063424733,0.03115880266779009,0.011992837941769054,0.13003274597207956,0.036878377125424404,0.10815749023894698,6.107009919986695e-08,0.7522068042736545,1.826360706826972,0.020639552336654626,1.801205631397114,1.8631020506350617,-0.13566176470588234,20.167892271602586,-48.21,62.93,32.94563636363637,0.012527201429145922,32.91,32.97,3.310234806820689e-05,3.2105113727813756e-08,3.255248347088633e-05,3.3104220478867456e-05,0.011659946815632996,0.0002171032647809579,0.011048951616538759,0.01173700481529179,2.840342563938494e-05,2.754775004277638e-08,2.7931615054542318e-05,2.8405032258856593e-05,0.04128085690301409,4.003723853431922e-05,0.04059513872642877,0.041283191925181796,0.011660028428669233,0.00021710166888622755,0.011049037720991162,0.011737085872117225,0.16742081447963802,3.0295516534029288e-05,False,False,True
0,1.121091592034109,0.012683859854600797,1.099093985357544,1.1475534248170678,0.056880272100516785,0.03518688705341935,0.006303048663250663,0.13428792378571044,0.046633437554741884,0.12353063937622139,8.921594629729412e-08,0.8711137611929533,1.8667095857846934,0.01370848837497388,1.8344788639369725,1.8824746916233972,-0.10124364047484458,22.778298128856196,-67.16,103.31,32.957927927927926,0.012440192713875538,32.93,32.97,3.3092361878017184e-05,1.092036792191875e-07,3.255248347088633e-05,3.420769449482971e-05,0.011362608562948167,0.00041500796310958607,0.010360230077177558,0.012425058014044818,2.8394857002202777e-05,9.370207140165078e-08,2.7931615054542318e-05,2.935186666748515e-05,0.04126840345145295,0.0001361843409368181,0.04059513872642877,0.04265929832268786,0.011362692346211895,0.0004150048187836482,0.010360318870158107,0.012425134582275175,0.14471452798191067,-1.579501579502288e-05,False,False,True
0,1.1491170273313103,0.028496824381297095,1.118328074383992,1.2179320693164697,0.10337507682537199,0.07580083227205119,0.010679351578979868,0.29342002386361815,0.08300631609070458,0.1999515823717863,5.0405112528295604e-08,0.9916341824034098,1.9163738791978957,0.030595907952954166,1.8679486242475378,1.9861952071005675,0.21082579185520356,22.526523809191193,-60.72,84.23,32.95963636363637,0.012335320565129372,32.93,32.97,3.31035963419806e-05,1.4969409285996466e-07,3.089727244694296e-05,3.531116851079195e-05,0.010873045857196232,0.0003618209331110796,0.010359561736569385,0.012425058014044818,2.8404496719032708e-05,1.2844481685838025e-07,2.651136344159949e-05,3.02987010761137e-05,0.04128241358445923,0.00018667861306533118,0.03853097913016968,0.04403540472019392,0.010873133453424453,0.00036181791590344863,0.010359647550674485,0.012425134582275175,0.15384615384615385,-4.914004914003888e-05,False,False,True
0,1.1668772284596545,0.021031445948515425,1.125447010311214,1.2087981169386535,0.10320623240688476,0.06403441527917776,0.02657142418496354,0.2900910683712133,0.07281040127863779,0.16953007617432866,5.232162458845835e-08,0.8916916077487098,1.9776136964661204,0.057515443394101216,1.8966462986295984,2.06693936828015,0.08733747880158267,23.687550362409304,-64.14,87.61,32.93360360360361,0.0108538047617006,32.91,32.95,3.299948396209816e-05,3.257300341504641e-07,3.0345535438961837e-05,3.751811654271645e-05,0.011667683893358238,0.0006535826098956048,0.010360898417785728,0.013800496070942707,2.8315163230241006e-05,2.7949222165278694e-07,2.6037946237285214e-05,3.219236989337081e-05,0.04115257843660495,0.0004062072847845418,0.03784292593141665,0.04678761751520604,0.011667765198724723,0.0006535777091495727,0.01036099024026883,0.013800562729229731,0.1582815149802148,-0.00015057915057917413,False,False,True
0,1.189790303009697,0.027599651977138005,1.1587827740458603,1.2810134702594034,0.12217683711328998,0.08856630656300063,0.016010093491935887,0.4186330866674245,0.0995346978543572,0.2233400326106189,4.70788332762595e-08,1.179739488930628,2.03753005504248,0.014916743556328748,2.0121737635997823,2.0537903877304244,-0.5226357466063347,23.61489507837741,-107.71,117.6,32.89612612612613,0.018545823895086,32.84,32.93,3.293071042432136e-05,4.427366901757891e-07,2.9242061422999583e-05,4.027680158262207e-05,0.011431685072531315,0.00046996132975289586,0.010359561736569385,0.013799827730334535,2.8256152187816584e-05,3.7988962690272924e-07,2.5091111828656657e-05,3.455945591494219e-05,0.041066813204306975,0.0005521224631921042,0.03646681953391059,0.050227883508971186,0.01143176759234025,0.0004699575954482333,0.010359647550674485,0.013799892151292825,0.15384615384615385,-0.0003178308178307996,False,False,True
0,1.2026585978202273,0.027840675043726164,1.1674273955009238,1.2564343217229497,0.16263631687760516,0.10799420056007088,0.03412090249688484,0.3675441064856186,0.13191952084773692,0.29880610038244504,7.329839712966191e-08,1.3797135527296485,2.0413108547926795,0.016084159673100316,2.0081208800801886,2.0574999876791904,0.6285407239819004,76.19394585730313,-755.34,331.38,32.83227272727273,0.049412309332742516,32.73,32.89,3.308861705669604e-05,1.2067818776094917e-06,2.5379902367131716e-05,5.020806772628231e-05,0.010500202506090694,0.003275637625697384,-0.009599327752133853,0.017238757042883343,2.8391643763259473e-05,1.0354775816208514e-06,2.177719139845672e-05,4.308096559259917e-05,0.04126373340711751,0.0015049382569508642,0.03165044714263938,0.06261284108652573,0.010748337508181311,0.0023352151568603935,5.9251837759271344e-05,0.017238805117449303,0.06334841628959277,-0.0006948583278858463,False,False,True
0,1.1555005663788256,0.01749915969746383,1.130586204144343,1.2148776455910935,0.07324912655887407,0.03975566292254648,0.017558760999846934,0.22595496076874352,0.04478583749430435,0.11055402901194755,7.294101900257033e-08,0.6656987909599952,1.9685165848333197,0.022772735377565592,1.942721078431664,2.0074869774462347,-0.07086489542114202,37.433515499871696,-237.77,177.5,32.82918918918919,0.013151918984429233,32.79,32.84,3.248507668710583e-05,4.3655394154503614e-07,3.0345535438961837e-05,3.531116851079195e-05,0.012033580978233364,0.001329513784066181,0.0034830397926881133,0.014487880929087565,2.7873776753562745e-05,3.745845276808038e-07,2.6037946237285214e-05,3.02987010761137e-05,0.040511077928391065,0.0005444121593499876,0.03784292593141665,0.04403540472019392,0.01203365924667024,0.0013294945268717204,0.0034833505547615146,0.014487942290602298,0.12210288298473713,0.00013583713583714484,False,False,True
0,0.3777208683682426,0.003707386951363552,0.36937445521344786,0.38581426811557484,0.007525124772292802,0.007836044381428924,0.00026916350941319663,0.030959195283801696,0.004666342018885745,0.02331932759520617,4.904140081529729e-08,0.19426736229428898,-0.6406196189897267,0.0061797216209982025,-0.6504104756545043,-0.6331785145423674,0.2600678349349914,13.678980729436708,-59.47,43.73,31.171981981981983,0.03667597231331443,31.11,31.23,2.967472298632037e-05,7.310058499354092e-07,1.9862532287320473e-05,3.0345535438961837e-05,0.02193236455851829,0.0009175775353054071,0.02067768635543215,0.030306421094325544,2.5462356506390108e-05,6.272385952142664e-07,1.7043019355313955e-05,2.6037946237285214e-05,0.03700637763553161,0.0009116135152790822,0.02476991515510908,0.03784292593141665,0.021932399526345875,0.0009175753488340757,0.02067772362300054,0.030306441184955284,0.17184850197851892,0.0010881010881011125,True,False,False
0,0.3876055576746148,0.003488637960483215,0.37419323491045653,0.39639480355048434,0.016747468902273254,0.017510873304529613,0.00018510196890581047,0.05696751613849027,0.013372425081741525,0.058479051864972924,4.8457512707295036e-08,0.5512411456702153,-0.6161578260058376,0.014379231101380972,-0.6467918385997607,-0.6033565037569516,-0.07309389140271494,20.148812488461882,-106.6,80.95,31.21702702702703,0.019567811908827823,31.15,31.25,2.9581591889449508e-05,1.3431877016954666e-06,1.3241688191546983e-05,3.420769449482971e-05,0.022266801056842683,0.0016121467083934978,0.015863318985985454,0.03511677842012321,2.5382445492850057e-05,1.1525204171690091e-06,1.1362012903542639e-05,2.935186666748515e-05,0.03689023688698938,0.001675045504123432,0.01651327677007272,0.04265929832268786,0.0222668355409732,0.0016121425987450674,0.015863373111343906,0.035116789866297335,0.16742081447963802,0.0001790101790101806,True,False,False
0,0.39067162874746,0.002766512766769515,0.38385290028202285,0.396654818137648,0.005836940572558323,0.005649973334067537,0.00011345128502987374,0.02180406710691766,0.0049957594123381565,0.022752424486496246,4.8711861086458974e-08,0.1554261181395994,-0.5942972523694884,0.006881453619130166,-0.6066042867026347,-0.5853088459922358,-0.005757918552036227,10.98914632988582,-25.27,20.65,31.217090909090906,0.012291972060967946,31.19,31.23,2.9786308788338428e-05,6.388141047383685e-08,2.9242061422999583e-05,2.9793798430980708e-05,0.02173933402852246,0.00034293854401223954,0.021365739554185182,0.02205379275293821,2.5558102555084316e-05,5.481335911259208e-08,2.5091111828656657e-05,2.5564529032970932e-05,0.03714553264399276,7.966442015229534e-05,0.03646681953391059,0.037154872732663616,0.021739369467551544,0.00034293796721676574,0.021365775621606693,0.022053827695099087,0.16742081447963802,-4.481211820661267e-05,True,False,False
0,0.3944653293751971,0.0020909657715246547,0.3895085502171272,0.39883660766480566,0.0035604440919376865,0.003362202538385379,5.675950491451647e-05,0.013081322691282177,0.0018091557446192701,0.009721165081919638,6.794249741981506e-08,0.09309983096709298,-0.5793228615552862,0.007687254281212053,-0.5951353604453963,-0.5706001277652141,0.03949123798756344,12.792827086071982,-29.75,37.87,31.207117117117114,0.01680840630525424,31.17,31.23,2.9792550157206997e-05,2.6228588620373654e-08,2.9242061422999583e-05,2.9793798430980708e-05,0.021452912203030344,0.00022899482419654735,0.021365739554185182,0.02205379275293821,2.5563457953323164e-05,2.250540550687745e-08,2.5091111828656657e-05,2.5564529032970932e-05,0.03715331605121847,3.270881604455062e-05,0.03646681953391059,0.037154872732663616,0.021452948124986368,0.0002289944420799334,0.021365775621606693,0.022053827695099087,0.17637083097795364,-0.00031028431028430365,True,False,False
0,0.3932601397762284,0.0014932602589459395,0.3884021174666626,0.3968054945922085,0.003324737598786173,0.003394165243873087,7.538789365432903e-05,0.012598866001330186,0.003136041365253176,0.01080483953813345,7.172679000961094e-08,0.06774477226636,-0.583101153650968,0.002887229234714274,-0.5889950764276555,-0.5795219134450333,-0.04757918552036214,13.454165375562287,-35.96,31.12,31.182363636363636,0.01298745144023337,31.17,31.21,2.9793798430980708e-05,0.0,2.9793798430980708e-05,2.9793798430980708e-05,0.021436568559939168,0.00020920536792690437,0.021365739554185182,0.02205379275293821,2.5564529032970935e-05,3.3900497805600145e-21,2.5564529032970932e-05,2.5564529032970932e-05,0.03715487273266361,6.94282195058691e-18,0.037154872732663616,0.037154872732663616,0.021436604511525032,0.0002092050257868409,0.021365775621606693,0.022053827695099087,0.16742081447963802,-0.00020629804116042207,True,False,False
0,0.3922582883465998,0.0017155952535886992,0.3885882999924303,0.39667259738311683,0.004377621219542501,0.0031212910745067463,0.0001397057480289865,0.01089195460122828,0.0027726911501244193,0.011560227590302737,7.116411061824923e-08,0.07142761107993097,-0.5874201887812843,0.0043897244450358894,-0.5915813750907828,-0.5779354022244058,0.09704918032786879,11.563088184788105,-29.95,23.78,31.157927927927926,0.020410207656381622,31.11,31.19,2.976636743849351e-05,1.2560231503440359e-07,2.9242061422999583e-05,3.0345535438961837e-05,0.021729558186987057,0.0003436237993686017,0.02136507121357701,0.02205379275293821,2.554099190642875e-05,1.0777289900593799e-07,2.5091111828656657e-05,2.6037946237285214e-05,0.03712066443803635,0.0001566345439586019,0.03646681953391059,0.03784292593141665,0.021729593595529277,0.0003436231890686096,0.021365105958624828,0.022053827695099087,0.17637083097795364,-0.00036819936819938964,True,False,False
0,0.3984651593954604,0.0024604067905277965,0.3924871823991894,0.40430626041301543,0.008593300208208884,0.006665953092562305,0.00044993502480319064,0.02126390246036799,0.006646804474332238,0.027005589726096645,5.032576239072384e-08,0.1876928992102868,-0.5704785896716392,0.004072338621023872,-0.5777740529833478,-0.5648180024337421,-0.009236425339366507,14.817200333815201,-61.41,48.61,31.112363636363632,0.02229605933533733,31.07,31.15,2.9211478715543614e-05,7.320098802320222e-07,2.5379902367131716e-05,3.0345535438961837e-05,0.022814304592975586,0.0012182642957649637,0.02136507121357701,0.027555544980529763,2.50648703772863e-05,6.28100102072051e-07,2.177719139845672e-05,2.6037946237285214e-05,0.03642868083850459,0.0009128656086627711,0.03165044714263938,0.03784292593141665,0.022814337239647205,0.0012182613637801403,0.021365105958624828,0.027555568956527415,0.1900452488687783,-0.0005401798796294094,True,False,False
0,0.39569610470779026,0.0025533613474563875,0.3825988870579509,0.40090699776481015,0.007764131831774798,0.00479675667066139,0.0005352077935099652,0.020543074569669095,0.005910011261589417,0.02577519300206906,3.9006621918580286e-08,0.20004236588517893,-0.5791938159068836,0.007232226158779842,-0.5908153840109014,-0.5703160561456057,-0.026970039570378572,12.252210710101885,-32.91,28.0,31.08783783783784,0.013578419067529787,31.07,31.11,2.9243309696773293e-05,6.946172859576934e-08,2.869032441501846e-05,2.9793798430980708e-05,0.022714715538598464,0.0001512649280910851,0.02205312441233004,0.0234292308098361,2.5092182908304428e-05,5.960154363937667e-08,2.461769462434238e-05,2.5564529032970932e-05,0.03646837621535574,8.662345258679648e-05,0.03577876633515756,0.037154872732663616,0.022714748223996672,0.00015126465362363877,0.02205315807334079,0.023429262493783756,0.17184850197851892,-9.020709020708828e-05,True,False,False
0,0.392131160447329,0.0020588207282313457,0.3880557128615737,0.39661888845502363,0.0020579571710705297,0.001875855935345629,0.0001314713818006093,0.00784326538077133,0.0015889504270807139,0.008054529497903546,6.461797984018414e-08,0.07347910072010308,-0.5856456435597955,0.005339350516001066,-0.593723980115017,-0.575903727998445,-0.2996323529411764,15.071954253338577,-82.67,46.46,31.07690909090909,0.01722732279090706,31.05,31.11,2.9192754608937922e-05,2.5044704555183603e-07,2.7035113391075092e-05,3.0345535438961837e-05,0.02284775056280379,0.0005047930886539597,0.02205312441233004,0.026179438583023705,2.504880418256975e-05,2.1489575362683823e-07,2.3197443011399553e-05,2.6037946237285214e-05,0.03640533061682746,0.0003123243290145261,0.03371460673889847,0.03784292593141665,0.022847782970089877,0.0005047919979281729,0.02205315807334079,0.026179463819304027,0.17647058823529413,-0.00019475689200459427,True,False,False
0,0.3914508092410505,0.0023503596568881465,0.38608924165449876,0.39799438881286964,0.0053737074250323,0.004845685104284896,0.0003477687083593985,0.021006105253863885,0.004260569541642639,0.020632669769424024,6.28224442467129e-08,0.19517458272747115,-0.591429005664547,0.003443249627371616,-0.5966837518132756,-0.586412134636032,0.2638065610859728,11.588778803680569,-30.26,34.69,31.04711711711712,0.015455942510443958,31.01,31.09,2.9242061422999583e-05,2.6258309410215037e-08,2.869032441501846e-05,2.9793798430980708e-05,0.022745069314695925,0.00012886184289526698,0.02205312441233004,0.0234292308098361,2.509111182865666e-05,2.2530907390987502e-08,2.461769462434238e-05,2.5564529032970932e-05,0.03646681953391058,3.2745879870656314e-05,0.03577876633515756,0.037154872732663616,0.02274510195275015,0.00012886165864468973,0.02205315807334079,0.023429262493783756,0.1809954751131222,-0.0001776061776061738,True,False,False
0,0.39269963254098456,0.0024904428852662547,0.3876704201910377,0.39932314552567916,0.0064597059049780695,0.0057109624195530555,0.0004278093586668303,0.021620953034433392,0.005042073075663197,0.02392103607400173,7.21001233716656e-08,0.16944664380210636,-0.5879967581900801,0.004060072545410351,-0.5963627173746853,-0.5840290243106546,-0.053470887507066175,10.103737365975306,-24.86,25.16,31.02818181818182,0.01286356194922999,31.01,31.05,2.9449040729948435e-05,2.672796876239762e-07,2.9242061422999583e-05,2.9793798430980708e-05,0.022146670483439955,0.00023559766726133377,0.02205312441233004,0.02274184595169124,2.5268710147111278e-05,2.293389797214116e-07,2.5091111828656657e-05,2.5564529032970932e-05,0.03672493666609816,0.0003333157670613939,0.03646681953391059,0.037154872732663616,0.022146704486881826,0.00023559713695749457,0.02205315807334079,0.022741879836680714,0.18541548897682306,1.1541149155827809e-05,True,False,False
0,0.39025004782389616,0.0019008013712521609,0.3849587862509515,0.3939900044789566,0.0020252441103885957,0.0033512521139690676,8.739068215457164e-05,0.01661911465061525,0.0033777286024430572,0.016218592762868557,4.933569806506166e-08,0.11640540030393975,-0.5921021575369786,0.004941095038439894,-0.5989371436371087,-0.5860810074097461,0.20002262443438898,20.699618187182345,-70.53,149.37,31.043873873873878,0.011997815799035165,31.03,31.07,2.918963392450364e-05,8.455864881695469e-07,2.427642835116947e-05,3.089727244694296e-05,0.02268974361591476,0.0014243592569309256,0.021365739554185182,0.029621709598613367,2.5046126483450324e-05,7.255543591320039e-07,2.083035698982817e-05,2.651136344159949e-05,0.036401438913214595,0.0010545032861513297,0.03027434074513332,0.03853097913016968,0.022689776438066495,0.0014243561396251512,0.021365775621606693,0.029621734658973508,0.17647058823529413,8.950508950508759e-06,True,False,False
0,0.39220540738985804,0.0017020550117364387,0.38903675597970305,0.39599207177612833,0.004687805292456814,0.005592302572420568,0.00011387188524690204,0.022508211645878493,0.00165755603354784,0.00801921504131804,4.8585215850494023e-08,0.06519528178825942,-0.5882465520338046,0.003833628832197684,-0.5973052345737153,-0.5819186186374853,-0.24664782362916923,11.973552421541378,-30.89,30.08,31.02563636363637,0.015652609052224604,30.99,31.05,2.8762724293893813e-05,2.2030258434956712e-07,2.5931639375112838e-05,2.9242061422999583e-05,0.023480020657721423,0.00031492932785924977,0.022740509270474895,0.02824159315745828,2.467981724391303e-05,1.8903033887034517e-07,2.2250608602771e-05,2.5091111828656657e-05,0.03586905385897583,0.00027473215619508516,0.03233850034139241,0.03646681953391059,0.023480051253275916,0.00031492885486743505,0.02274054069379526,0.028241613828018014,0.18541548897682306,-0.00011685413520276335,True,False,False
